onset	duration	sample	trial_type	response_time	stim_file	stimulus	trial	block	paired_block	start_loc_x	start_loc_y	obj_loc_x	obj_loc_y	resp_loc_x	resp_loc_y	resp_reaction_time	resp_total_time	resp_path_length	x	y	direction	travel_time	session	experiment	subject
0.0	5.0	315050	NAV_PRACTICE_LEARN	n/a	wordpools/wordpool.txt	wheel	-1	-1	-1	14.9838	-5.88401	9.57624	12.3302	9.8596	11.3758	0.034	5.038	18.03158178872281	14.9838	-5.88401	354.686431885	n/a	1	YC1	R1062J
0.034	0.016	315084	TRAVEL_PRACTICE_LEARN	n/a	n/a	wheel	-1	-1	-1	14.9838	-5.88401	9.57624	12.3302	9.8596	11.3758	n/a	n/a	n/a	14.9838	-5.88401	354.686431885	0.0	1	YC1	R1062J
0.05	0.016	315100	TRAVEL_PRACTICE_LEARN	n/a	n/a	wheel	-1	-1	-1	14.9838	-5.88401	9.57624	12.3302	9.8596	11.3758	n/a	n/a	n/a	14.9654	-5.882419999999999	355.057647705	0.016	1	YC1	R1062J
0.066	0.017	315116	TRAVEL_PRACTICE_LEARN	n/a	n/a	wheel	-1	-1	-1	14.9838	-5.88401	9.57624	12.3302	9.8596	11.3758	n/a	n/a	n/a	14.9654	-5.882539999999999	355.438995361	0.032	1	YC1	R1062J
0.083	0.017	315133	TRAVEL_PRACTICE_LEARN	n/a	n/a	wheel	-1	-1	-1	14.9838	-5.88401	9.57624	12.3302	9.8596	11.3758	n/a	n/a	n/a	14.9654	-5.88266	355.78817749	0.049	1	YC1	R1062J
0.1	0.016	315150	TRAVEL_PRACTICE_LEARN	n/a	n/a	wheel	-1	-1	-1	14.9838	-5.88401	9.57624	12.3302	9.8596	11.3758	n/a	n/a	n/a	14.9654	-5.882769999999999	356.155395508	0.066	1	YC1	R1062J
0.116	0.017	315166	TRAVEL_PRACTICE_LEARN	n/a	n/a	wheel	-1	-1	-1	14.9838	-5.88401	9.57624	12.3302	9.8596	11.3758	n/a	n/a	n/a	14.9654	-5.8829	356.541748047	0.082	1	YC1	R1062J
0.133	0.017	315183	TRAVEL_PRACTICE_LEARN	n/a	n/a	wheel	-1	-1	-1	14.9838	-5.88401	9.57624	12.3302	9.8596	11.3758	n/a	n/a	n/a	14.9654	-5.883009999999999	356.902801514	0.099	1	YC1	R1062J
0.15	0.017	315200	TRAVEL_PRACTICE_LEARN	n/a	n/a	wheel	-1	-1	-1	14.9838	-5.88401	9.57624	12.3302	9.8596	11.3758	n/a	n/a	n/a	14.9654	-5.88313	357.271606445	0.116	1	YC1	R1062J
0.167	0.016	315217	TRAVEL_PRACTICE_LEARN	n/a	n/a	wheel	-1	-1	-1	14.9838	-5.88401	9.57624	12.3302	9.8596	11.3758	n/a	n/a	n/a	14.9654	-5.88325	357.637542725	0.133	1	YC1	R1062J
0.183	0.017	315233	TRAVEL_PRACTICE_LEARN	n/a	n/a	wheel	-1	-1	-1	14.9838	-5.88401	9.57624	12.3302	9.8596	11.3758	n/a	n/a	n/a	14.9654	-5.883379999999999	358.027709961	0.149	1	YC1	R1062J
0.2	0.016	315250	TRAVEL_PRACTICE_LEARN	n/a	n/a	wheel	-1	-1	-1	14.9838	-5.88401	9.57624	12.3302	9.8596	11.3758	n/a	n/a	n/a	14.9654	-5.88349	358.392181396	0.166	1	YC1	R1062J
0.216	0.017	315266	TRAVEL_PRACTICE_LEARN	n/a	n/a	wheel	-1	-1	-1	14.9838	-5.88401	9.57624	12.3302	9.8596	11.3758	n/a	n/a	n/a	14.9654	-5.88361	358.760772705	0.182	1	YC1	R1062J
0.233	0.016	315283	TRAVEL_PRACTICE_LEARN	n/a	n/a	wheel	-1	-1	-1	14.9838	-5.88401	9.57624	12.3302	9.8596	11.3758	n/a	n/a	n/a	14.9654	-5.883729999999999	359.128570557	0.199	1	YC1	R1062J
0.249	0.018	315299	TRAVEL_PRACTICE_LEARN	n/a	n/a	wheel	-1	-1	-1	14.9838	-5.88401	9.57624	12.3302	9.8596	11.3758	n/a	n/a	n/a	14.9654	-5.883849999999999	359.49597168	0.215	1	YC1	R1062J
0.267	0.017	315317	TRAVEL_PRACTICE_LEARN	n/a	n/a	wheel	-1	-1	-1	14.9838	-5.88401	9.57624	12.3302	9.8596	11.3758	n/a	n/a	n/a	14.9654	-5.883969999999999	359.864257812	0.233	1	YC1	R1062J
0.284	0.016	315334	TRAVEL_PRACTICE_LEARN	n/a	n/a	wheel	-1	-1	-1	14.9838	-5.88401	9.57624	12.3302	9.8596	11.3758	n/a	n/a	n/a	14.9654	-5.88408	0.22702026400000003	0.25	1	YC1	R1062J
0.3	0.017	315350	TRAVEL_PRACTICE_LEARN	n/a	n/a	wheel	-1	-1	-1	14.9838	-5.88401	9.57624	12.3302	9.8596	11.3758	n/a	n/a	n/a	14.9654	-5.88421	0.618988037	0.266	1	YC1	R1062J
0.317	0.016	315367	TRAVEL_PRACTICE_LEARN	n/a	n/a	wheel	-1	-1	-1	14.9838	-5.88401	9.57624	12.3302	9.8596	11.3758	n/a	n/a	n/a	14.9654	-5.88433	0.9910583499999991	0.283	1	YC1	R1062J
0.333	0.017	315383	TRAVEL_PRACTICE_LEARN	n/a	n/a	wheel	-1	-1	-1	14.9838	-5.88401	9.57624	12.3302	9.8596	11.3758	n/a	n/a	n/a	14.9654	-5.884439999999999	1.350158691	0.299	1	YC1	R1062J
0.35	0.017	315400	TRAVEL_PRACTICE_LEARN	n/a	n/a	wheel	-1	-1	-1	14.9838	-5.88401	9.57624	12.3302	9.8596	11.3758	n/a	n/a	n/a	14.9654	-5.884559999999999	1.721740722999999	0.316	1	YC1	R1062J
0.367	0.016	315417	TRAVEL_PRACTICE_LEARN	n/a	n/a	wheel	-1	-1	-1	14.9838	-5.88401	9.57624	12.3302	9.8596	11.3758	n/a	n/a	n/a	14.9654	-5.88468	2.091094971	0.333	1	YC1	R1062J
0.383	0.017	315433	TRAVEL_PRACTICE_LEARN	n/a	n/a	wheel	-1	-1	-1	14.9838	-5.88401	9.57624	12.3302	9.8596	11.3758	n/a	n/a	n/a	14.9654	-5.8848	2.465179442999999	0.349	1	YC1	R1062J
0.4	0.016	315450	TRAVEL_PRACTICE_LEARN	n/a	n/a	wheel	-1	-1	-1	14.9838	-5.88401	9.57624	12.3302	9.8596	11.3758	n/a	n/a	n/a	14.9654	-5.88492	2.832946777	0.366	1	YC1	R1062J
0.416	0.017	315466	TRAVEL_PRACTICE_LEARN	n/a	n/a	wheel	-1	-1	-1	14.9838	-5.88401	9.57624	12.3302	9.8596	11.3758	n/a	n/a	n/a	14.9654	-5.88504	3.198638916	0.382	1	YC1	R1062J
0.433	0.017	315483	TRAVEL_PRACTICE_LEARN	n/a	n/a	wheel	-1	-1	-1	14.9838	-5.88401	9.57624	12.3302	9.8596	11.3758	n/a	n/a	n/a	14.9654	-5.885159999999999	3.567901610999999	0.399	1	YC1	R1062J
0.45	0.017	315500	TRAVEL_PRACTICE_LEARN	n/a	n/a	wheel	-1	-1	-1	14.9838	-5.88401	9.57624	12.3302	9.8596	11.3758	n/a	n/a	n/a	14.9654	-5.88527	3.940032958999999	0.416	1	YC1	R1062J
0.467	0.017	315517	TRAVEL_PRACTICE_LEARN	n/a	n/a	wheel	-1	-1	-1	14.9838	-5.88401	9.57624	12.3302	9.8596	11.3758	n/a	n/a	n/a	14.9654	-5.88539	4.313262939	0.433	1	YC1	R1062J
0.484	0.016	315534	TRAVEL_PRACTICE_LEARN	n/a	n/a	wheel	-1	-1	-1	14.9838	-5.88401	9.57624	12.3302	9.8596	11.3758	n/a	n/a	n/a	14.9654	-5.88551	4.688903809	0.45	1	YC1	R1062J
0.5	0.017	315550	TRAVEL_PRACTICE_LEARN	n/a	n/a	wheel	-1	-1	-1	14.9838	-5.88401	9.57624	12.3302	9.8596	11.3758	n/a	n/a	n/a	14.9654	-5.885629999999999	5.060302734	0.466	1	YC1	R1062J
0.517	0.016	315567	TRAVEL_PRACTICE_LEARN	n/a	n/a	wheel	-1	-1	-1	14.9838	-5.88401	9.57624	12.3302	9.8596	11.3758	n/a	n/a	n/a	14.9654	-5.885749999999999	5.435333252	0.483	1	YC1	R1062J
0.533	0.017	315583	TRAVEL_PRACTICE_LEARN	n/a	n/a	wheel	-1	-1	-1	14.9838	-5.88401	9.57624	12.3302	9.8596	11.3758	n/a	n/a	n/a	14.9654	-5.885869999999999	5.793914795	0.499	1	YC1	R1062J
0.55	0.016	315600	TRAVEL_PRACTICE_LEARN	n/a	n/a	wheel	-1	-1	-1	14.9838	-5.88401	9.57624	12.3302	9.8596	11.3758	n/a	n/a	n/a	14.9655	-5.885989999999999	6.165313721	0.516	1	YC1	R1062J
0.566	0.017	315616	TRAVEL_PRACTICE_LEARN	n/a	n/a	wheel	-1	-1	-1	14.9838	-5.88401	9.57624	12.3302	9.8596	11.3758	n/a	n/a	n/a	14.9655	-5.886099999999999	6.520202636999999	0.532	1	YC1	R1062J
0.583	0.017	315633	TRAVEL_PRACTICE_LEARN	n/a	n/a	wheel	-1	-1	-1	14.9838	-5.88401	9.57624	12.3302	9.8596	11.3758	n/a	n/a	n/a	14.9655	-5.886219999999999	6.901641846	0.549	1	YC1	R1062J
0.6	0.016	315650	TRAVEL_PRACTICE_LEARN	n/a	n/a	wheel	-1	-1	-1	14.9838	-5.88401	9.57624	12.3302	9.8596	11.3758	n/a	n/a	n/a	14.9655	-5.886339999999999	7.27130127	0.566	1	YC1	R1062J
0.616	0.017	315666	TRAVEL_PRACTICE_LEARN	n/a	n/a	wheel	-1	-1	-1	14.9838	-5.88401	9.57624	12.3302	9.8596	11.3758	n/a	n/a	n/a	14.9655	-5.886459999999999	7.642272948999999	0.582	1	YC1	R1062J
0.633	0.018	315683	TRAVEL_PRACTICE_LEARN	n/a	n/a	wheel	-1	-1	-1	14.9838	-5.88401	9.57624	12.3302	9.8596	11.3758	n/a	n/a	n/a	14.9655	-5.88658	8.0128479	0.599	1	YC1	R1062J
0.651	0.016	315701	TRAVEL_PRACTICE_LEARN	n/a	n/a	wheel	-1	-1	-1	14.9838	-5.88401	9.57624	12.3302	9.8596	11.3758	n/a	n/a	n/a	14.9656	-5.886689999999999	8.380981445	0.617	1	YC1	R1062J
0.667	0.017	315717	TRAVEL_PRACTICE_LEARN	n/a	n/a	wheel	-1	-1	-1	14.9838	-5.88401	9.57624	12.3302	9.8596	11.3758	n/a	n/a	n/a	14.9656	-5.886809999999999	8.74786377	0.633	1	YC1	R1062J
0.684	0.016	315734	TRAVEL_PRACTICE_LEARN	n/a	n/a	wheel	-1	-1	-1	14.9838	-5.88401	9.57624	12.3302	9.8596	11.3758	n/a	n/a	n/a	14.9656	-5.88693	9.140563965	0.65	1	YC1	R1062J
0.7	0.016	315750	TRAVEL_PRACTICE_LEARN	n/a	n/a	wheel	-1	-1	-1	14.9838	-5.88401	9.57624	12.3302	9.8596	11.3758	n/a	n/a	n/a	14.9656	-5.88705	9.510223389	0.666	1	YC1	R1062J
0.716	0.017	315766	TRAVEL_PRACTICE_LEARN	n/a	n/a	wheel	-1	-1	-1	14.9838	-5.88401	9.57624	12.3302	9.8596	11.3758	n/a	n/a	n/a	14.9656	-5.88717	9.882843018	0.682	1	YC1	R1062J
0.733	0.017	315783	TRAVEL_PRACTICE_LEARN	n/a	n/a	wheel	-1	-1	-1	14.9838	-5.88401	9.57624	12.3302	9.8596	11.3758	n/a	n/a	n/a	14.9656	-5.887279999999999	10.229156494	0.699	1	YC1	R1062J
0.75	0.017	315800	TRAVEL_PRACTICE_LEARN	n/a	n/a	wheel	-1	-1	-1	14.9838	-5.88401	9.57624	12.3302	9.8596	11.3758	n/a	n/a	n/a	14.9657	-5.8874	10.605010986	0.716	1	YC1	R1062J
0.767	0.016	315817	TRAVEL_PRACTICE_LEARN	n/a	n/a	wheel	-1	-1	-1	14.9838	-5.88401	9.57624	12.3302	9.8596	11.3758	n/a	n/a	n/a	14.9657	-5.887509999999999	10.967651367	0.733	1	YC1	R1062J
0.783	0.017	315833	TRAVEL_PRACTICE_LEARN	n/a	n/a	wheel	-1	-1	-1	14.9838	-5.88401	9.57624	12.3302	9.8596	11.3758	n/a	n/a	n/a	14.9657	-5.887629999999999	11.351989746	0.749	1	YC1	R1062J
0.8	0.017	315850	TRAVEL_PRACTICE_LEARN	n/a	n/a	wheel	-1	-1	-1	14.9838	-5.88401	9.57624	12.3302	9.8596	11.3758	n/a	n/a	n/a	14.9657	-5.887749999999999	11.729675293	0.766	1	YC1	R1062J
0.817	0.016	315867	TRAVEL_PRACTICE_LEARN	n/a	n/a	wheel	-1	-1	-1	14.9838	-5.88401	9.57624	12.3302	9.8596	11.3758	n/a	n/a	n/a	14.9658	-5.88787	12.086120605	0.783	1	YC1	R1062J
0.833	0.017	315883	TRAVEL_PRACTICE_LEARN	n/a	n/a	wheel	-1	-1	-1	14.9838	-5.88401	9.57624	12.3302	9.8596	11.3758	n/a	n/a	n/a	14.9658	-5.887979999999999	12.450286865	0.799	1	YC1	R1062J
0.85	0.017	315900	TRAVEL_PRACTICE_LEARN	n/a	n/a	wheel	-1	-1	-1	14.9838	-5.88401	9.57624	12.3302	9.8596	11.3758	n/a	n/a	n/a	14.9658	-5.888099999999999	12.846588135	0.816	1	YC1	R1062J
0.867	0.017	315917	TRAVEL_PRACTICE_LEARN	n/a	n/a	wheel	-1	-1	-1	14.9838	-5.88401	9.57624	12.3302	9.8596	11.3758	n/a	n/a	n/a	14.9658	-5.888209999999999	13.189819336	0.833	1	YC1	R1062J
0.884	0.016	315934	TRAVEL_PRACTICE_LEARN	n/a	n/a	wheel	-1	-1	-1	14.9838	-5.88401	9.57624	12.3302	9.8596	11.3758	n/a	n/a	n/a	14.9659	-5.888329999999999	13.58001709	0.85	1	YC1	R1062J
0.9	0.017	315950	TRAVEL_PRACTICE_LEARN	n/a	n/a	wheel	-1	-1	-1	14.9838	-5.88401	9.57624	12.3302	9.8596	11.3758	n/a	n/a	n/a	14.9659	-5.888449999999999	13.950408936	0.866	1	YC1	R1062J
0.917	0.017	315967	TRAVEL_PRACTICE_LEARN	n/a	n/a	wheel	-1	-1	-1	14.9838	-5.88401	9.57624	12.3302	9.8596	11.3758	n/a	n/a	n/a	14.9659	-5.888569999999999	14.325683594	0.883	1	YC1	R1062J
0.934	0.016	315984	TRAVEL_PRACTICE_LEARN	n/a	n/a	wheel	-1	-1	-1	14.9838	-5.88401	9.57624	12.3302	9.8596	11.3758	n/a	n/a	n/a	14.966	-5.88867	14.672149658	0.9	1	YC1	R1062J
0.95	0.017	316000	TRAVEL_PRACTICE_LEARN	n/a	n/a	wheel	-1	-1	-1	14.9838	-5.88401	9.57624	12.3302	9.8596	11.3758	n/a	n/a	n/a	14.966	-5.888799999999999	15.065185547	0.916	1	YC1	R1062J
0.967	0.017	316017	TRAVEL_PRACTICE_LEARN	n/a	n/a	wheel	-1	-1	-1	14.9838	-5.88401	9.57624	12.3302	9.8596	11.3758	n/a	n/a	n/a	14.966	-5.88891	15.434539795	0.933	1	YC1	R1062J
0.984	0.016	316034	TRAVEL_PRACTICE_LEARN	n/a	n/a	wheel	-1	-1	-1	14.9838	-5.88401	9.57624	12.3302	9.8596	11.3758	n/a	n/a	n/a	14.9661	-5.88902	15.783538818	0.95	1	YC1	R1062J
1.0	0.017	316050	TRAVEL_PRACTICE_LEARN	n/a	n/a	wheel	-1	-1	-1	14.9838	-5.88401	9.57624	12.3302	9.8596	11.3758	n/a	n/a	n/a	14.9661	-5.88914	16.174316406	0.966	1	YC1	R1062J
1.017	0.016	316067	TRAVEL_PRACTICE_LEARN	n/a	n/a	wheel	-1	-1	-1	14.9838	-5.88401	9.57624	12.3302	9.8596	11.3758	n/a	n/a	n/a	14.9661	-5.889249999999999	16.548828125	0.983	1	YC1	R1062J
1.033	0.017	316083	TRAVEL_PRACTICE_LEARN	n/a	n/a	wheel	-1	-1	-1	14.9838	-5.88401	9.57624	12.3302	9.8596	11.3758	n/a	n/a	n/a	14.9661	-5.889249999999999	16.535339355	0.999	1	YC1	R1062J
1.05	0.016	316100	TRAVEL_PRACTICE_LEARN	n/a	n/a	wheel	-1	-1	-1	14.9838	-5.88401	9.57624	12.3302	9.8596	11.3758	n/a	n/a	n/a	14.9544	-5.785129999999999	16.535339355	1.016	1	YC1	R1062J
1.066	0.018	316116	TRAVEL_PRACTICE_LEARN	n/a	n/a	wheel	-1	-1	-1	14.9838	-5.88401	9.57624	12.3302	9.8596	11.3758	n/a	n/a	n/a	14.9269	-5.69258	16.535339355	1.032	1	YC1	R1062J
1.084	0.016	316134	TRAVEL_PRACTICE_LEARN	n/a	n/a	wheel	-1	-1	-1	14.9838	-5.88401	9.57624	12.3302	9.8596	11.3758	n/a	n/a	n/a	14.8982	-5.595839999999999	16.535339355	1.05	1	YC1	R1062J
1.1	0.017	316150	TRAVEL_PRACTICE_LEARN	n/a	n/a	wheel	-1	-1	-1	14.9838	-5.88401	9.57624	12.3302	9.8596	11.3758	n/a	n/a	n/a	14.8703	-5.501859999999999	16.535339355	1.066	1	YC1	R1062J
1.117	0.017	316167	TRAVEL_PRACTICE_LEARN	n/a	n/a	wheel	-1	-1	-1	14.9838	-5.88401	9.57624	12.3302	9.8596	11.3758	n/a	n/a	n/a	14.8403	-5.400669999999999	16.535339355	1.083	1	YC1	R1062J
1.134	0.016	316184	TRAVEL_PRACTICE_LEARN	n/a	n/a	wheel	-1	-1	-1	14.9838	-5.88401	9.57624	12.3302	9.8596	11.3758	n/a	n/a	n/a	14.8125	-5.30714	16.535339355	1.1	1	YC1	R1062J
1.15	0.017	316200	TRAVEL_PRACTICE_LEARN	n/a	n/a	wheel	-1	-1	-1	14.9838	-5.88401	9.57624	12.3302	9.8596	11.3758	n/a	n/a	n/a	14.7836	-5.20985	16.535339355	1.116	1	YC1	R1062J
1.167	0.016	316217	TRAVEL_PRACTICE_LEARN	n/a	n/a	wheel	-1	-1	-1	14.9838	-5.88401	9.57624	12.3302	9.8596	11.3758	n/a	n/a	n/a	14.7552	-5.113979999999999	16.535339355	1.133	1	YC1	R1062J
1.183	0.016	316233	TRAVEL_PRACTICE_LEARN	n/a	n/a	wheel	-1	-1	-1	14.9838	-5.88401	9.57624	12.3302	9.8596	11.3758	n/a	n/a	n/a	14.7265	-5.01742	16.535339355	1.149	1	YC1	R1062J
1.199	0.018	316249	TRAVEL_PRACTICE_LEARN	n/a	n/a	wheel	-1	-1	-1	14.9838	-5.88401	9.57624	12.3302	9.8596	11.3758	n/a	n/a	n/a	14.6981	-4.92194	16.535339355	1.165	1	YC1	R1062J
1.217	0.016	316267	TRAVEL_PRACTICE_LEARN	n/a	n/a	wheel	-1	-1	-1	14.9838	-5.88401	9.57624	12.3302	9.8596	11.3758	n/a	n/a	n/a	14.6713	-4.83161	16.535339355	1.183	1	YC1	R1062J
1.233	0.017	316283	TRAVEL_PRACTICE_LEARN	n/a	n/a	wheel	-1	-1	-1	14.9838	-5.88401	9.57624	12.3302	9.8596	11.3758	n/a	n/a	n/a	14.6427	-4.73508	16.535339355	1.199	1	YC1	R1062J
1.25	0.016	316300	TRAVEL_PRACTICE_LEARN	n/a	n/a	wheel	-1	-1	-1	14.9838	-5.88401	9.57624	12.3302	9.8596	11.3758	n/a	n/a	n/a	14.6136	-4.637089999999999	16.535339355	1.216	1	YC1	R1062J
1.266	0.017	316316	TRAVEL_PRACTICE_LEARN	n/a	n/a	wheel	-1	-1	-1	14.9838	-5.88401	9.57624	12.3302	9.8596	11.3758	n/a	n/a	n/a	14.5846	-4.539609999999999	16.535339355	1.232	1	YC1	R1062J
1.283	0.017	316333	TRAVEL_PRACTICE_LEARN	n/a	n/a	wheel	-1	-1	-1	14.9838	-5.88401	9.57624	12.3302	9.8596	11.3758	n/a	n/a	n/a	14.5566	-4.44524	16.535339355	1.249	1	YC1	R1062J
1.3	0.017	316350	TRAVEL_PRACTICE_LEARN	n/a	n/a	wheel	-1	-1	-1	14.9838	-5.88401	9.57624	12.3302	9.8596	11.3758	n/a	n/a	n/a	14.5287	-4.351259999999999	16.535339355	1.266	1	YC1	R1062J
1.317	0.016	316367	TRAVEL_PRACTICE_LEARN	n/a	n/a	wheel	-1	-1	-1	14.9838	-5.88401	9.57624	12.3302	9.8596	11.3758	n/a	n/a	n/a	14.4995	-4.25295	16.535339355	1.283	1	YC1	R1062J
1.333	0.017	316383	TRAVEL_PRACTICE_LEARN	n/a	n/a	wheel	-1	-1	-1	14.9838	-5.88401	9.57624	12.3302	9.8596	11.3758	n/a	n/a	n/a	14.4713	-4.157829999999999	16.535339355	1.299	1	YC1	R1062J
1.35	0.016	316400	TRAVEL_PRACTICE_LEARN	n/a	n/a	wheel	-1	-1	-1	14.9838	-5.88401	9.57624	12.3302	9.8596	11.3758	n/a	n/a	n/a	14.4416	-4.05782	16.535339355	1.316	1	YC1	R1062J
1.366	0.018	316416	TRAVEL_PRACTICE_LEARN	n/a	n/a	wheel	-1	-1	-1	14.9838	-5.88401	9.57624	12.3302	9.8596	11.3758	n/a	n/a	n/a	14.4144	-3.9661	16.535339355	1.332	1	YC1	R1062J
1.384	0.015	316434	TRAVEL_PRACTICE_LEARN	n/a	n/a	wheel	-1	-1	-1	14.9838	-5.88401	9.57624	12.3302	9.8596	11.3758	n/a	n/a	n/a	14.386	-3.87055	16.535339355	1.35	1	YC1	R1062J
1.399	0.018	316449	TRAVEL_PRACTICE_LEARN	n/a	n/a	wheel	-1	-1	-1	14.9838	-5.88401	9.57624	12.3302	9.8596	11.3758	n/a	n/a	n/a	14.3576	-3.7749799999999993	16.535339355	1.365	1	YC1	R1062J
1.417	0.016	316467	TRAVEL_PRACTICE_LEARN	n/a	n/a	wheel	-1	-1	-1	14.9838	-5.88401	9.57624	12.3302	9.8596	11.3758	n/a	n/a	n/a	14.3278	-3.674609999999999	16.535339355	1.383	1	YC1	R1062J
1.433	0.017	316483	TRAVEL_PRACTICE_LEARN	n/a	n/a	wheel	-1	-1	-1	14.9838	-5.88401	9.57624	12.3302	9.8596	11.3758	n/a	n/a	n/a	14.3012	-3.58487	16.535339355	1.399	1	YC1	R1062J
1.45	0.016	316500	TRAVEL_PRACTICE_LEARN	n/a	n/a	wheel	-1	-1	-1	14.9838	-5.88401	9.57624	12.3302	9.8596	11.3758	n/a	n/a	n/a	14.271	-3.483309999999999	16.535339355	1.416	1	YC1	R1062J
1.466	0.018	316516	TRAVEL_PRACTICE_LEARN	n/a	n/a	wheel	-1	-1	-1	14.9838	-5.88401	9.57624	12.3302	9.8596	11.3758	n/a	n/a	n/a	14.2443	-3.393209999999999	16.535339355	1.432	1	YC1	R1062J
1.484	0.015	316534	TRAVEL_PRACTICE_LEARN	n/a	n/a	wheel	-1	-1	-1	14.9838	-5.88401	9.57624	12.3302	9.8596	11.3758	n/a	n/a	n/a	14.2141	-3.29164	16.535339355	1.45	1	YC1	R1062J
1.499	0.017	316549	TRAVEL_PRACTICE_LEARN	n/a	n/a	wheel	-1	-1	-1	14.9838	-5.88401	9.57624	12.3302	9.8596	11.3758	n/a	n/a	n/a	14.1873	-3.20133	16.535339355	1.465	1	YC1	R1062J
1.516	0.017	316566	TRAVEL_PRACTICE_LEARN	n/a	n/a	wheel	-1	-1	-1	14.9838	-5.88401	9.57624	12.3302	9.8596	11.3758	n/a	n/a	n/a	14.1576	-3.10122	16.535339355	1.482	1	YC1	R1062J
1.533	0.017	316583	TRAVEL_PRACTICE_LEARN	n/a	n/a	wheel	-1	-1	-1	14.9838	-5.88401	9.57624	12.3302	9.8596	11.3758	n/a	n/a	n/a	14.1305	-3.009999999999999	16.535339355	1.499	1	YC1	R1062J
1.55	0.016	316600	TRAVEL_PRACTICE_LEARN	n/a	n/a	wheel	-1	-1	-1	14.9838	-5.88401	9.57624	12.3302	9.8596	11.3758	n/a	n/a	n/a	14.1018	-2.913289999999999	16.535339355	1.516	1	YC1	R1062J
1.566	0.017	316616	TRAVEL_PRACTICE_LEARN	n/a	n/a	wheel	-1	-1	-1	14.9838	-5.88401	9.57624	12.3302	9.8596	11.3758	n/a	n/a	n/a	14.0723	-2.81382	16.535339355	1.532	1	YC1	R1062J
1.583	0.016	316633	TRAVEL_PRACTICE_LEARN	n/a	n/a	wheel	-1	-1	-1	14.9838	-5.88401	9.57624	12.3302	9.8596	11.3758	n/a	n/a	n/a	14.0448	-2.72141	16.535339355	1.549	1	YC1	R1062J
1.599	0.018	316649	TRAVEL_PRACTICE_LEARN	n/a	n/a	wheel	-1	-1	-1	14.9838	-5.88401	9.57624	12.3302	9.8596	11.3758	n/a	n/a	n/a	14.0165	-2.625779999999999	16.535339355	1.565	1	YC1	R1062J
1.617	0.016	316667	TRAVEL_PRACTICE_LEARN	n/a	n/a	wheel	-1	-1	-1	14.9838	-5.88401	9.57624	12.3302	9.8596	11.3758	n/a	n/a	n/a	13.9875	-2.52827	16.535339355	1.583	1	YC1	R1062J
1.633	0.017	316683	TRAVEL_PRACTICE_LEARN	n/a	n/a	wheel	-1	-1	-1	14.9838	-5.88401	9.57624	12.3302	9.8596	11.3758	n/a	n/a	n/a	13.9596	-2.434439999999999	16.535339355	1.599	1	YC1	R1062J
1.65	0.016	316700	TRAVEL_PRACTICE_LEARN	n/a	n/a	wheel	-1	-1	-1	14.9838	-5.88401	9.57624	12.3302	9.8596	11.3758	n/a	n/a	n/a	13.9295	-2.33305	16.535339355	1.616	1	YC1	R1062J
1.666	0.017	316716	TRAVEL_PRACTICE_LEARN	n/a	n/a	wheel	-1	-1	-1	14.9838	-5.88401	9.57624	12.3302	9.8596	11.3758	n/a	n/a	n/a	13.9018	-2.23964	16.535339355	1.632	1	YC1	R1062J
1.683	0.017	316733	TRAVEL_PRACTICE_LEARN	n/a	n/a	wheel	-1	-1	-1	14.9838	-5.88401	9.57624	12.3302	9.8596	11.3758	n/a	n/a	n/a	13.8731	-2.14279	16.535339355	1.649	1	YC1	R1062J
1.7	0.017	316750	TRAVEL_PRACTICE_LEARN	n/a	n/a	wheel	-1	-1	-1	14.9838	-5.88401	9.57624	12.3302	9.8596	11.3758	n/a	n/a	n/a	13.8454	-2.049599999999999	16.535339355	1.666	1	YC1	R1062J
1.717	0.016	316767	TRAVEL_PRACTICE_LEARN	n/a	n/a	wheel	-1	-1	-1	14.9838	-5.88401	9.57624	12.3302	9.8596	11.3758	n/a	n/a	n/a	13.8169	-1.9536600000000002	16.535339355	1.683	1	YC1	R1062J
1.733	0.017	316783	TRAVEL_PRACTICE_LEARN	n/a	n/a	wheel	-1	-1	-1	14.9838	-5.88401	9.57624	12.3302	9.8596	11.3758	n/a	n/a	n/a	13.7883	-1.85728	16.535339355	1.699	1	YC1	R1062J
1.75	0.017	316800	TRAVEL_PRACTICE_LEARN	n/a	n/a	wheel	-1	-1	-1	14.9838	-5.88401	9.57624	12.3302	9.8596	11.3758	n/a	n/a	n/a	13.7596	-1.760459999999999	16.535339355	1.716	1	YC1	R1062J
1.767	0.017	316817	TRAVEL_PRACTICE_LEARN	n/a	n/a	wheel	-1	-1	-1	14.9838	-5.88401	9.57624	12.3302	9.8596	11.3758	n/a	n/a	n/a	13.7313	-1.66537	16.535339355	1.733	1	YC1	R1062J
1.784	0.016	316834	TRAVEL_PRACTICE_LEARN	n/a	n/a	wheel	-1	-1	-1	14.9838	-5.88401	9.57624	12.3302	9.8596	11.3758	n/a	n/a	n/a	13.7019	-1.56631	16.535339355	1.75	1	YC1	R1062J
1.8	0.017	316850	TRAVEL_PRACTICE_LEARN	n/a	n/a	wheel	-1	-1	-1	14.9838	-5.88401	9.57624	12.3302	9.8596	11.3758	n/a	n/a	n/a	13.674	-1.472159999999999	16.535339355	1.766	1	YC1	R1062J
1.817	0.017	316867	TRAVEL_PRACTICE_LEARN	n/a	n/a	wheel	-1	-1	-1	14.9838	-5.88401	9.57624	12.3302	9.8596	11.3758	n/a	n/a	n/a	13.6447	-1.373699999999999	16.535339355	1.783	1	YC1	R1062J
1.834	0.016	316884	TRAVEL_PRACTICE_LEARN	n/a	n/a	wheel	-1	-1	-1	14.9838	-5.88401	9.57624	12.3302	9.8596	11.3758	n/a	n/a	n/a	13.6166	-1.279099999999999	16.535339355	1.8	1	YC1	R1062J
1.85	0.017	316900	TRAVEL_PRACTICE_LEARN	n/a	n/a	wheel	-1	-1	-1	14.9838	-5.88401	9.57624	12.3302	9.8596	11.3758	n/a	n/a	n/a	13.588	-1.18249	16.535339355	1.816	1	YC1	R1062J
1.867	0.016	316917	TRAVEL_PRACTICE_LEARN	n/a	n/a	wheel	-1	-1	-1	14.9838	-5.88401	9.57624	12.3302	9.8596	11.3758	n/a	n/a	n/a	13.5597	-1.08722	16.535339355	1.833	1	YC1	R1062J
1.883	0.017	316933	TRAVEL_PRACTICE_LEARN	n/a	n/a	wheel	-1	-1	-1	14.9838	-5.88401	9.57624	12.3302	9.8596	11.3758	n/a	n/a	n/a	13.532	-0.9941590000000001	16.535339355	1.849	1	YC1	R1062J
1.9	0.016	316950	TRAVEL_PRACTICE_LEARN	n/a	n/a	wheel	-1	-1	-1	14.9838	-5.88401	9.57624	12.3302	9.8596	11.3758	n/a	n/a	n/a	13.5035	-0.8981310000000001	16.535339355	1.866	1	YC1	R1062J
1.916	0.018	316966	TRAVEL_PRACTICE_LEARN	n/a	n/a	wheel	-1	-1	-1	14.9838	-5.88401	9.57624	12.3302	9.8596	11.3758	n/a	n/a	n/a	13.4749	-0.8016489999999991	16.535339355	1.882	1	YC1	R1062J
1.934	0.017	316984	TRAVEL_PRACTICE_LEARN	n/a	n/a	wheel	-1	-1	-1	14.9838	-5.88401	9.57624	12.3302	9.8596	11.3758	n/a	n/a	n/a	13.4469	-0.707273	16.535339355	1.9	1	YC1	R1062J
1.951	0.015	317001	TRAVEL_PRACTICE_LEARN	n/a	n/a	wheel	-1	-1	-1	14.9838	-5.88401	9.57624	12.3302	9.8596	11.3758	n/a	n/a	n/a	13.4187	-0.612206	16.535339355	1.917	1	YC1	R1062J
1.966	0.017	317016	TRAVEL_PRACTICE_LEARN	n/a	n/a	wheel	-1	-1	-1	14.9838	-5.88401	9.57624	12.3302	9.8596	11.3758	n/a	n/a	n/a	13.3887	-0.511311999999999	16.535339355	1.932	1	YC1	R1062J
1.983	0.017	317033	TRAVEL_PRACTICE_LEARN	n/a	n/a	wheel	-1	-1	-1	14.9838	-5.88401	9.57624	12.3302	9.8596	11.3758	n/a	n/a	n/a	13.3601	-0.41513499999999903	16.535339355	1.949	1	YC1	R1062J
2.0	0.017	317050	TRAVEL_PRACTICE_LEARN	n/a	n/a	wheel	-1	-1	-1	14.9838	-5.88401	9.57624	12.3302	9.8596	11.3758	n/a	n/a	n/a	13.3329	-0.323249	16.535339355	1.966	1	YC1	R1062J
2.017	0.016	317067	TRAVEL_PRACTICE_LEARN	n/a	n/a	wheel	-1	-1	-1	14.9838	-5.88401	9.57624	12.3302	9.8596	11.3758	n/a	n/a	n/a	13.3044	-0.227222	16.535339355	1.983	1	YC1	R1062J
2.033	0.017	317083	TRAVEL_PRACTICE_LEARN	n/a	n/a	wheel	-1	-1	-1	14.9838	-5.88401	9.57624	12.3302	9.8596	11.3758	n/a	n/a	n/a	13.2759	-0.131436	16.535339355	1.999	1	YC1	R1062J
2.05	0.017	317100	TRAVEL_PRACTICE_LEARN	n/a	n/a	wheel	-1	-1	-1	14.9838	-5.88401	9.57624	12.3302	9.8596	11.3758	n/a	n/a	n/a	13.2473	-0.0349428	16.535339355	2.016	1	YC1	R1062J
2.067	0.017	317117	TRAVEL_PRACTICE_LEARN	n/a	n/a	wheel	-1	-1	-1	14.9838	-5.88401	9.57624	12.3302	9.8596	11.3758	n/a	n/a	n/a	13.2198	0.057714	16.535339355	2.033	1	YC1	R1062J
2.084	0.016	317134	TRAVEL_PRACTICE_LEARN	n/a	n/a	wheel	-1	-1	-1	14.9838	-5.88401	9.57624	12.3302	9.8596	11.3758	n/a	n/a	n/a	13.1895	0.15954499999999902	16.535339355	2.05	1	YC1	R1062J
2.1	0.017	317150	TRAVEL_PRACTICE_LEARN	n/a	n/a	wheel	-1	-1	-1	14.9838	-5.88401	9.57624	12.3302	9.8596	11.3758	n/a	n/a	n/a	13.1619	0.252489999999999	16.535339355	2.066	1	YC1	R1062J
2.117	0.016	317167	TRAVEL_PRACTICE_LEARN	n/a	n/a	wheel	-1	-1	-1	14.9838	-5.88401	9.57624	12.3302	9.8596	11.3758	n/a	n/a	n/a	13.133	0.349955	16.535339355	2.083	1	YC1	R1062J
2.133	0.017	317183	TRAVEL_PRACTICE_LEARN	n/a	n/a	wheel	-1	-1	-1	14.9838	-5.88401	9.57624	12.3302	9.8596	11.3758	n/a	n/a	n/a	13.1049	0.444774	16.535339355	2.099	1	YC1	R1062J
2.15	0.017	317200	TRAVEL_PRACTICE_LEARN	n/a	n/a	wheel	-1	-1	-1	14.9838	-5.88401	9.57624	12.3302	9.8596	11.3758	n/a	n/a	n/a	13.0763	0.5409509999999991	16.535339355	2.116	1	YC1	R1062J
2.167	0.016	317217	TRAVEL_PRACTICE_LEARN	n/a	n/a	wheel	-1	-1	-1	14.9838	-5.88401	9.57624	12.3302	9.8596	11.3758	n/a	n/a	n/a	13.0479	0.63649	16.535339355	2.133	1	YC1	R1062J
2.183	0.017	317233	TRAVEL_PRACTICE_LEARN	n/a	n/a	wheel	-1	-1	-1	14.9838	-5.88401	9.57624	12.3302	9.8596	11.3758	n/a	n/a	n/a	13.0194	0.7325519999999991	16.535339355	2.149	1	YC1	R1062J
2.2	0.017	317250	TRAVEL_PRACTICE_LEARN	n/a	n/a	wheel	-1	-1	-1	14.9838	-5.88401	9.57624	12.3302	9.8596	11.3758	n/a	n/a	n/a	12.991	0.828412	16.535339355	2.166	1	YC1	R1062J
2.217	0.017	317267	TRAVEL_PRACTICE_LEARN	n/a	n/a	wheel	-1	-1	-1	14.9838	-5.88401	9.57624	12.3302	9.8596	11.3758	n/a	n/a	n/a	12.9626	0.923853	16.535339355	2.183	1	YC1	R1062J
2.234	0.016	317284	TRAVEL_PRACTICE_LEARN	n/a	n/a	wheel	-1	-1	-1	14.9838	-5.88401	9.57624	12.3302	9.8596	11.3758	n/a	n/a	n/a	12.9349	1.01723	16.535339355	2.2	1	YC1	R1062J
2.25	0.016	317300	TRAVEL_PRACTICE_LEARN	n/a	n/a	wheel	-1	-1	-1	14.9838	-5.88401	9.57624	12.3302	9.8596	11.3758	n/a	n/a	n/a	12.9048	1.11853	16.535339355	2.216	1	YC1	R1062J
2.266	0.018	317316	TRAVEL_PRACTICE_LEARN	n/a	n/a	wheel	-1	-1	-1	14.9838	-5.88401	9.57624	12.3302	9.8596	11.3758	n/a	n/a	n/a	12.8769	1.21258	16.535339355	2.232	1	YC1	R1062J
2.284	0.016	317334	TRAVEL_PRACTICE_LEARN	n/a	n/a	wheel	-1	-1	-1	14.9838	-5.88401	9.57624	12.3302	9.8596	11.3758	n/a	n/a	n/a	12.8487	1.30773	16.535339355	2.25	1	YC1	R1062J
2.3	0.017	317350	TRAVEL_PRACTICE_LEARN	n/a	n/a	wheel	-1	-1	-1	14.9838	-5.88401	9.57624	12.3302	9.8596	11.3758	n/a	n/a	n/a	12.8212	1.40035	16.535339355	2.266	1	YC1	R1062J
2.317	0.017	317367	TRAVEL_PRACTICE_LEARN	n/a	n/a	wheel	-1	-1	-1	14.9838	-5.88401	9.57624	12.3302	9.8596	11.3758	n/a	n/a	n/a	12.791	1.50181	16.535339355	2.283	1	YC1	R1062J
2.334	0.017	317384	TRAVEL_PRACTICE_LEARN	n/a	n/a	wheel	-1	-1	-1	14.9838	-5.88401	9.57624	12.3302	9.8596	11.3758	n/a	n/a	n/a	12.764	1.59297	16.535339355	2.3	1	YC1	R1062J
2.351	0.016	317401	TRAVEL_PRACTICE_LEARN	n/a	n/a	wheel	-1	-1	-1	14.9838	-5.88401	9.57624	12.3302	9.8596	11.3758	n/a	n/a	n/a	12.735	1.69066	16.535339355	2.317	1	YC1	R1062J
2.367	0.017	317417	TRAVEL_PRACTICE_LEARN	n/a	n/a	wheel	-1	-1	-1	14.9838	-5.88401	9.57624	12.3302	9.8596	11.3758	n/a	n/a	n/a	12.7056	1.78966	16.535339355	2.333	1	YC1	R1062J
2.384	0.016	317434	TRAVEL_PRACTICE_LEARN	n/a	n/a	wheel	-1	-1	-1	14.9838	-5.88401	9.57624	12.3302	9.8596	11.3758	n/a	n/a	n/a	12.6768	1.88652	16.535339355	2.35	1	YC1	R1062J
2.4	0.017	317450	TRAVEL_PRACTICE_LEARN	n/a	n/a	wheel	-1	-1	-1	14.9838	-5.88401	9.57624	12.3302	9.8596	11.3758	n/a	n/a	n/a	12.6487	1.98113	16.535339355	2.366	1	YC1	R1062J
2.417	0.017	317467	TRAVEL_PRACTICE_LEARN	n/a	n/a	wheel	-1	-1	-1	14.9838	-5.88401	9.57624	12.3302	9.8596	11.3758	n/a	n/a	n/a	12.6207	2.07568	16.535339355	2.383	1	YC1	R1062J
2.434	0.017	317484	TRAVEL_PRACTICE_LEARN	n/a	n/a	wheel	-1	-1	-1	14.9838	-5.88401	9.57624	12.3302	9.8596	11.3758	n/a	n/a	n/a	12.592	2.17219	16.535339355	2.4	1	YC1	R1062J
2.451	0.016	317501	TRAVEL_PRACTICE_LEARN	n/a	n/a	wheel	-1	-1	-1	14.9838	-5.88401	9.57624	12.3302	9.8596	11.3758	n/a	n/a	n/a	12.5637	2.26765	16.535339355	2.417	1	YC1	R1062J
2.467	0.017	317517	TRAVEL_PRACTICE_LEARN	n/a	n/a	wheel	-1	-1	-1	14.9838	-5.88401	9.57624	12.3302	9.8596	11.3758	n/a	n/a	n/a	12.5347	2.365149999999999	16.535339355	2.433	1	YC1	R1062J
2.484	0.016	317534	TRAVEL_PRACTICE_LEARN	n/a	n/a	wheel	-1	-1	-1	14.9838	-5.88401	9.57624	12.3302	9.8596	11.3758	n/a	n/a	n/a	12.5061	2.461469999999999	16.535339355	2.45	1	YC1	R1062J
2.5	0.017	317550	TRAVEL_PRACTICE_LEARN	n/a	n/a	wheel	-1	-1	-1	14.9838	-5.88401	9.57624	12.3302	9.8596	11.3758	n/a	n/a	n/a	12.4784	2.55491	16.535339355	2.466	1	YC1	R1062J
2.517	0.017	317567	TRAVEL_PRACTICE_LEARN	n/a	n/a	wheel	-1	-1	-1	14.9838	-5.88401	9.57624	12.3302	9.8596	11.3758	n/a	n/a	n/a	12.4499	2.65098	16.535339355	2.483	1	YC1	R1062J
2.534	0.016	317584	TRAVEL_PRACTICE_LEARN	n/a	n/a	wheel	-1	-1	-1	14.9838	-5.88401	9.57624	12.3302	9.8596	11.3758	n/a	n/a	n/a	12.4214	2.74684	16.535339355	2.5	1	YC1	R1062J
2.55	0.017	317600	TRAVEL_PRACTICE_LEARN	n/a	n/a	wheel	-1	-1	-1	14.9838	-5.88401	9.57624	12.3302	9.8596	11.3758	n/a	n/a	n/a	12.3931	2.842299999999999	16.535339355	2.516	1	YC1	R1062J
2.567	0.016	317617	TRAVEL_PRACTICE_LEARN	n/a	n/a	wheel	-1	-1	-1	14.9838	-5.88401	9.57624	12.3302	9.8596	11.3758	n/a	n/a	n/a	12.3638	2.94092	16.535339355	2.533	1	YC1	R1062J
2.583	0.017	317633	TRAVEL_PRACTICE_LEARN	n/a	n/a	wheel	-1	-1	-1	14.9838	-5.88401	9.57624	12.3302	9.8596	11.3758	n/a	n/a	n/a	12.336	3.034419999999999	16.535339355	2.549	1	YC1	R1062J
2.6	0.017	317650	TRAVEL_PRACTICE_LEARN	n/a	n/a	wheel	-1	-1	-1	14.9838	-5.88401	9.57624	12.3302	9.8596	11.3758	n/a	n/a	n/a	12.308	3.128899999999999	16.535339355	2.566	1	YC1	R1062J
2.617	0.017	317667	TRAVEL_PRACTICE_LEARN	n/a	n/a	wheel	-1	-1	-1	14.9838	-5.88401	9.57624	12.3302	9.8596	11.3758	n/a	n/a	n/a	12.2796	3.22434	16.535339355	2.583	1	YC1	R1062J
2.634	0.017	317684	TRAVEL_PRACTICE_LEARN	n/a	n/a	wheel	-1	-1	-1	14.9838	-5.88401	9.57624	12.3302	9.8596	11.3758	n/a	n/a	n/a	12.2515	3.31902	16.535339355	2.6	1	YC1	R1062J
2.651	0.016	317701	TRAVEL_PRACTICE_LEARN	n/a	n/a	wheel	-1	-1	-1	14.9838	-5.88401	9.57624	12.3302	9.8596	11.3758	n/a	n/a	n/a	12.2226	3.41645	16.535339355	2.617	1	YC1	R1062J
2.667	0.017	317717	TRAVEL_PRACTICE_LEARN	n/a	n/a	wheel	-1	-1	-1	14.9838	-5.88401	9.57624	12.3302	9.8596	11.3758	n/a	n/a	n/a	12.1931	3.51573	16.535339355	2.633	1	YC1	R1062J
2.684	0.016	317734	TRAVEL_PRACTICE_LEARN	n/a	n/a	wheel	-1	-1	-1	14.9838	-5.88401	9.57624	12.3302	9.8596	11.3758	n/a	n/a	n/a	12.1647	3.611619999999999	16.535339355	2.65	1	YC1	R1062J
2.7	0.017	317750	TRAVEL_PRACTICE_LEARN	n/a	n/a	wheel	-1	-1	-1	14.9838	-5.88401	9.57624	12.3302	9.8596	11.3758	n/a	n/a	n/a	12.1365	3.706539999999999	16.535339355	2.666	1	YC1	R1062J
2.717	0.017	317767	TRAVEL_PRACTICE_LEARN	n/a	n/a	wheel	-1	-1	-1	14.9838	-5.88401	9.57624	12.3302	9.8596	11.3758	n/a	n/a	n/a	12.1079	3.80276	16.535339355	2.683	1	YC1	R1062J
2.734	0.016	317784	TRAVEL_PRACTICE_LEARN	n/a	n/a	wheel	-1	-1	-1	14.9838	-5.88401	9.57624	12.3302	9.8596	11.3758	n/a	n/a	n/a	12.0799	3.89696	16.535339355	2.7	1	YC1	R1062J
2.75	0.017	317800	TRAVEL_PRACTICE_LEARN	n/a	n/a	wheel	-1	-1	-1	14.9838	-5.88401	9.57624	12.3302	9.8596	11.3758	n/a	n/a	n/a	12.0511	3.994289999999999	16.535339355	2.716	1	YC1	R1062J
2.767	0.016	317817	TRAVEL_PRACTICE_LEARN	n/a	n/a	wheel	-1	-1	-1	14.9838	-5.88401	9.57624	12.3302	9.8596	11.3758	n/a	n/a	n/a	12.0227	4.089819999999999	16.535339355	2.733	1	YC1	R1062J
2.783	0.017	317833	TRAVEL_PRACTICE_LEARN	n/a	n/a	wheel	-1	-1	-1	14.9838	-5.88401	9.57624	12.3302	9.8596	11.3758	n/a	n/a	n/a	11.9947	4.184129999999999	16.535339355	2.749	1	YC1	R1062J
2.8	0.017	317850	TRAVEL_PRACTICE_LEARN	n/a	n/a	wheel	-1	-1	-1	14.9838	-5.88401	9.57624	12.3302	9.8596	11.3758	n/a	n/a	n/a	11.9666	4.27888	16.535339355	2.766	1	YC1	R1062J
2.817	0.017	317867	TRAVEL_PRACTICE_LEARN	n/a	n/a	wheel	-1	-1	-1	14.9838	-5.88401	9.57624	12.3302	9.8596	11.3758	n/a	n/a	n/a	11.9384	4.373649999999999	16.535339355	2.783	1	YC1	R1062J
2.834	0.016	317884	TRAVEL_PRACTICE_LEARN	n/a	n/a	wheel	-1	-1	-1	14.9838	-5.88401	9.57624	12.3302	9.8596	11.3758	n/a	n/a	n/a	11.9093	4.47173	16.535339355	2.8	1	YC1	R1062J
2.85	0.017	317900	TRAVEL_PRACTICE_LEARN	n/a	n/a	wheel	-1	-1	-1	14.9838	-5.88401	9.57624	12.3302	9.8596	11.3758	n/a	n/a	n/a	11.881	4.567	16.535339355	2.816	1	YC1	R1062J
2.867	0.017	317917	TRAVEL_PRACTICE_LEARN	n/a	n/a	wheel	-1	-1	-1	14.9838	-5.88401	9.57624	12.3302	9.8596	11.3758	n/a	n/a	n/a	11.852	4.664749999999999	16.535339355	2.833	1	YC1	R1062J
2.884	0.016	317934	TRAVEL_PRACTICE_LEARN	n/a	n/a	wheel	-1	-1	-1	14.9838	-5.88401	9.57624	12.3302	9.8596	11.3758	n/a	n/a	n/a	11.8244	4.75776	16.535339355	2.85	1	YC1	R1062J
2.9	0.017	317950	TRAVEL_PRACTICE_LEARN	n/a	n/a	wheel	-1	-1	-1	14.9838	-5.88401	9.57624	12.3302	9.8596	11.3758	n/a	n/a	n/a	11.7948	4.85752	16.535339355	2.866	1	YC1	R1062J
2.917	0.016	317967	TRAVEL_PRACTICE_LEARN	n/a	n/a	wheel	-1	-1	-1	14.9838	-5.88401	9.57624	12.3302	9.8596	11.3758	n/a	n/a	n/a	11.7663	4.95342	16.535339355	2.883	1	YC1	R1062J
2.933	0.017	317983	TRAVEL_PRACTICE_LEARN	n/a	n/a	wheel	-1	-1	-1	14.9838	-5.88401	9.57624	12.3302	9.8596	11.3758	n/a	n/a	n/a	11.7382	5.04804	16.535339355	2.899	1	YC1	R1062J
2.95	0.017	318000	TRAVEL_PRACTICE_LEARN	n/a	n/a	wheel	-1	-1	-1	14.9838	-5.88401	9.57624	12.3302	9.8596	11.3758	n/a	n/a	n/a	11.71	5.1429	16.535339355	2.916	1	YC1	R1062J
2.967	0.017	318017	TRAVEL_PRACTICE_LEARN	n/a	n/a	wheel	-1	-1	-1	14.9838	-5.88401	9.57624	12.3302	9.8596	11.3758	n/a	n/a	n/a	11.6821	5.237059999999999	16.535339355	2.933	1	YC1	R1062J
2.984	0.016	318034	TRAVEL_PRACTICE_LEARN	n/a	n/a	wheel	-1	-1	-1	14.9838	-5.88401	9.57624	12.3302	9.8596	11.3758	n/a	n/a	n/a	11.6538	5.332419999999999	16.535339355	2.95	1	YC1	R1062J
3.0	0.016	318050	TRAVEL_PRACTICE_LEARN	n/a	n/a	wheel	-1	-1	-1	14.9838	-5.88401	9.57624	12.3302	9.8596	11.3758	n/a	n/a	n/a	11.6242	5.432179999999999	16.535339355	2.966	1	YC1	R1062J
3.016	0.018	318066	TRAVEL_PRACTICE_LEARN	n/a	n/a	wheel	-1	-1	-1	14.9838	-5.88401	9.57624	12.3302	9.8596	11.3758	n/a	n/a	n/a	11.596	5.52711	16.535339355	2.982	1	YC1	R1062J
3.034	0.016	318084	TRAVEL_PRACTICE_LEARN	n/a	n/a	wheel	-1	-1	-1	14.9838	-5.88401	9.57624	12.3302	9.8596	11.3758	n/a	n/a	n/a	11.5681	5.6211	16.535339355	3.0	1	YC1	R1062J
3.05	0.017	318100	TRAVEL_PRACTICE_LEARN	n/a	n/a	wheel	-1	-1	-1	14.9838	-5.88401	9.57624	12.3302	9.8596	11.3758	n/a	n/a	n/a	11.5403	5.714809999999999	16.535339355	3.016	1	YC1	R1062J
3.067	0.016	318117	TRAVEL_PRACTICE_LEARN	n/a	n/a	wheel	-1	-1	-1	14.9838	-5.88401	9.57624	12.3302	9.8596	11.3758	n/a	n/a	n/a	11.5107	5.81433	16.535339355	3.033	1	YC1	R1062J
3.083	0.017	318133	TRAVEL_PRACTICE_LEARN	n/a	n/a	wheel	-1	-1	-1	14.9838	-5.88401	9.57624	12.3302	9.8596	11.3758	n/a	n/a	n/a	11.4825	5.909279999999999	16.535339355	3.049	1	YC1	R1062J
3.1	0.018	318150	TRAVEL_PRACTICE_LEARN	n/a	n/a	wheel	-1	-1	-1	14.9838	-5.88401	9.57624	12.3302	9.8596	11.3758	n/a	n/a	n/a	11.4532	6.007979999999999	16.535339355	3.066	1	YC1	R1062J
3.118	0.016	318168	TRAVEL_PRACTICE_LEARN	n/a	n/a	wheel	-1	-1	-1	14.9838	-5.88401	9.57624	12.3302	9.8596	11.3758	n/a	n/a	n/a	11.4264	6.0982	16.535339355	3.084	1	YC1	R1062J
3.134	0.016	318184	TRAVEL_PRACTICE_LEARN	n/a	n/a	wheel	-1	-1	-1	14.9838	-5.88401	9.57624	12.3302	9.8596	11.3758	n/a	n/a	n/a	11.3974	6.195949999999999	16.535339355	3.1	1	YC1	R1062J
3.15	0.016	318200	TRAVEL_PRACTICE_LEARN	n/a	n/a	wheel	-1	-1	-1	14.9838	-5.88401	9.57624	12.3302	9.8596	11.3758	n/a	n/a	n/a	11.3672	6.29767	16.535339355	3.116	1	YC1	R1062J
3.166	0.018	318216	TRAVEL_PRACTICE_LEARN	n/a	n/a	wheel	-1	-1	-1	14.9838	-5.88401	9.57624	12.3302	9.8596	11.3758	n/a	n/a	n/a	11.3393	6.391829999999999	16.535339355	3.132	1	YC1	R1062J
3.184	0.016	318234	TRAVEL_PRACTICE_LEARN	n/a	n/a	wheel	-1	-1	-1	14.9838	-5.88401	9.57624	12.3302	9.8596	11.3758	n/a	n/a	n/a	11.3116	6.485129999999999	16.535339355	3.15	1	YC1	R1062J
3.2	0.017	318250	TRAVEL_PRACTICE_LEARN	n/a	n/a	wheel	-1	-1	-1	14.9838	-5.88401	9.57624	12.3302	9.8596	11.3758	n/a	n/a	n/a	11.2838	6.578619999999999	16.535339355	3.166	1	YC1	R1062J
3.217	0.017	318267	TRAVEL_PRACTICE_LEARN	n/a	n/a	wheel	-1	-1	-1	14.9838	-5.88401	9.57624	12.3302	9.8596	11.3758	n/a	n/a	n/a	11.2542	6.678219999999999	16.535339355	3.183	1	YC1	R1062J
3.234	0.016	318284	TRAVEL_PRACTICE_LEARN	n/a	n/a	wheel	-1	-1	-1	14.9838	-5.88401	9.57624	12.3302	9.8596	11.3758	n/a	n/a	n/a	11.2262	6.77252	16.535339355	3.2	1	YC1	R1062J
3.25	0.016	318300	TRAVEL_PRACTICE_LEARN	n/a	n/a	wheel	-1	-1	-1	14.9838	-5.88401	9.57624	12.3302	9.8596	11.3758	n/a	n/a	n/a	11.1969	6.871319999999999	16.535339355	3.216	1	YC1	R1062J
3.266	0.018	318316	TRAVEL_PRACTICE_LEARN	n/a	n/a	wheel	-1	-1	-1	14.9838	-5.88401	9.57624	12.3302	9.8596	11.3758	n/a	n/a	n/a	11.1692	6.96473	16.535339355	3.232	1	YC1	R1062J
3.284	0.016	318334	TRAVEL_PRACTICE_LEARN	n/a	n/a	wheel	-1	-1	-1	14.9838	-5.88401	9.57624	12.3302	9.8596	11.3758	n/a	n/a	n/a	11.1412	7.059	16.535339355	3.25	1	YC1	R1062J
3.3	0.017	318350	TRAVEL_PRACTICE_LEARN	n/a	n/a	wheel	-1	-1	-1	14.9838	-5.88401	9.57624	12.3302	9.8596	11.3758	n/a	n/a	n/a	11.1132	7.15319	16.535339355	3.266	1	YC1	R1062J
3.317	0.016	318367	TRAVEL_PRACTICE_LEARN	n/a	n/a	wheel	-1	-1	-1	14.9838	-5.88401	9.57624	12.3302	9.8596	11.3758	n/a	n/a	n/a	11.0836	7.25307	16.535339355	3.283	1	YC1	R1062J
3.333	0.018	318383	TRAVEL_PRACTICE_LEARN	n/a	n/a	wheel	-1	-1	-1	14.9838	-5.88401	9.57624	12.3302	9.8596	11.3758	n/a	n/a	n/a	11.0562	7.34522	16.535339355	3.299	1	YC1	R1062J
3.351	0.016	318401	TRAVEL_PRACTICE_LEARN	n/a	n/a	wheel	-1	-1	-1	14.9838	-5.88401	9.57624	12.3302	9.8596	11.3758	n/a	n/a	n/a	11.0265	7.445149999999999	16.535339355	3.317	1	YC1	R1062J
3.367	0.017	318417	TRAVEL_PRACTICE_LEARN	n/a	n/a	wheel	-1	-1	-1	14.9838	-5.88401	9.57624	12.3302	9.8596	11.3758	n/a	n/a	n/a	10.9989	7.538249999999999	16.535339355	3.333	1	YC1	R1062J
3.384	0.016	318434	TRAVEL_PRACTICE_LEARN	n/a	n/a	wheel	-1	-1	-1	14.9838	-5.88401	9.57624	12.3302	9.8596	11.3758	n/a	n/a	n/a	10.9693	7.637819999999999	16.535339355	3.35	1	YC1	R1062J
3.4	0.017	318450	TRAVEL_PRACTICE_LEARN	n/a	n/a	wheel	-1	-1	-1	14.9838	-5.88401	9.57624	12.3302	9.8596	11.3758	n/a	n/a	n/a	10.9417	7.730839999999999	16.535339355	3.366	1	YC1	R1062J
3.417	0.017	318467	TRAVEL_PRACTICE_LEARN	n/a	n/a	wheel	-1	-1	-1	14.9838	-5.88401	9.57624	12.3302	9.8596	11.3758	n/a	n/a	n/a	10.9125	7.829449999999999	16.535339355	3.383	1	YC1	R1062J
3.434	0.016	318484	TRAVEL_PRACTICE_LEARN	n/a	n/a	wheel	-1	-1	-1	14.9838	-5.88401	9.57624	12.3302	9.8596	11.3758	n/a	n/a	n/a	10.8849	7.92224	16.535339355	3.4	1	YC1	R1062J
3.45	0.017	318500	TRAVEL_PRACTICE_LEARN	n/a	n/a	wheel	-1	-1	-1	14.9838	-5.88401	9.57624	12.3302	9.8596	11.3758	n/a	n/a	n/a	10.8567	8.01739	16.535339355	3.416	1	YC1	R1062J
3.467	0.017	318517	TRAVEL_PRACTICE_LEARN	n/a	n/a	wheel	-1	-1	-1	14.9838	-5.88401	9.57624	12.3302	9.8596	11.3758	n/a	n/a	n/a	10.8277	8.11504	16.535339355	3.433	1	YC1	R1062J
3.484	0.016	318534	TRAVEL_PRACTICE_LEARN	n/a	n/a	wheel	-1	-1	-1	14.9838	-5.88401	9.57624	12.3302	9.8596	11.3758	n/a	n/a	n/a	10.7997	8.20916	16.535339355	3.45	1	YC1	R1062J
3.5	0.016	318550	TRAVEL_PRACTICE_LEARN	n/a	n/a	wheel	-1	-1	-1	14.9838	-5.88401	9.57624	12.3302	9.8596	11.3758	n/a	n/a	n/a	10.77	8.30923	16.535339355	3.466	1	YC1	R1062J
3.516	0.018	318566	TRAVEL_PRACTICE_LEARN	n/a	n/a	wheel	-1	-1	-1	14.9838	-5.88401	9.57624	12.3302	9.8596	11.3758	n/a	n/a	n/a	10.7418	8.40417	16.535339355	3.482	1	YC1	R1062J
3.534	0.016	318584	TRAVEL_PRACTICE_LEARN	n/a	n/a	wheel	-1	-1	-1	14.9838	-5.88401	9.57624	12.3302	9.8596	11.3758	n/a	n/a	n/a	10.7144	8.49655	16.535339355	3.5	1	YC1	R1062J
3.55	0.017	318600	TRAVEL_PRACTICE_LEARN	n/a	n/a	wheel	-1	-1	-1	14.9838	-5.88401	9.57624	12.3302	9.8596	11.3758	n/a	n/a	n/a	10.6861	8.59178	16.535339355	3.516	1	YC1	R1062J
3.567	0.017	318617	TRAVEL_PRACTICE_LEARN	n/a	n/a	wheel	-1	-1	-1	14.9838	-5.88401	9.57624	12.3302	9.8596	11.3758	n/a	n/a	n/a	10.6565	8.69146	16.535339355	3.533	1	YC1	R1062J
3.584	0.016	318634	TRAVEL_PRACTICE_LEARN	n/a	n/a	wheel	-1	-1	-1	14.9838	-5.88401	9.57624	12.3302	9.8596	11.3758	n/a	n/a	n/a	10.6294	8.78289	16.535339355	3.55	1	YC1	R1062J
3.6	0.017	318650	TRAVEL_PRACTICE_LEARN	n/a	n/a	wheel	-1	-1	-1	14.9838	-5.88401	9.57624	12.3302	9.8596	11.3758	n/a	n/a	n/a	10.6003	8.88076	16.535339355	3.566	1	YC1	R1062J
3.617	0.017	318667	TRAVEL_PRACTICE_LEARN	n/a	n/a	wheel	-1	-1	-1	14.9838	-5.88401	9.57624	12.3302	9.8596	11.3758	n/a	n/a	n/a	10.5709	8.97976	16.535339355	3.583	1	YC1	R1062J
3.634	0.016	318684	TRAVEL_PRACTICE_LEARN	n/a	n/a	wheel	-1	-1	-1	14.9838	-5.88401	9.57624	12.3302	9.8596	11.3758	n/a	n/a	n/a	10.5436	9.07178	16.535339355	3.6	1	YC1	R1062J
3.65	0.017	318700	TRAVEL_PRACTICE_LEARN	n/a	n/a	wheel	-1	-1	-1	14.9838	-5.88401	9.57624	12.3302	9.8596	11.3758	n/a	n/a	n/a	10.5145	9.16992	16.535339355	3.616	1	YC1	R1062J
3.667	0.017	318717	TRAVEL_PRACTICE_LEARN	n/a	n/a	wheel	-1	-1	-1	14.9838	-5.88401	9.57624	12.3302	9.8596	11.3758	n/a	n/a	n/a	10.4856	9.26707	16.535339355	3.633	1	YC1	R1062J
3.684	0.016	318734	TRAVEL_PRACTICE_LEARN	n/a	n/a	wheel	-1	-1	-1	14.9838	-5.88401	9.57624	12.3302	9.8596	11.3758	n/a	n/a	n/a	10.4579	9.36067	16.535339355	3.65	1	YC1	R1062J
3.7	0.017	318750	TRAVEL_PRACTICE_LEARN	n/a	n/a	wheel	-1	-1	-1	14.9838	-5.88401	9.57624	12.3302	9.8596	11.3758	n/a	n/a	n/a	10.4288	9.4585	16.535339355	3.666	1	YC1	R1062J
3.717	0.017	318767	TRAVEL_PRACTICE_LEARN	n/a	n/a	wheel	-1	-1	-1	14.9838	-5.88401	9.57624	12.3302	9.8596	11.3758	n/a	n/a	n/a	10.4004	9.55413	16.535339355	3.683	1	YC1	R1062J
3.734	0.016	318784	TRAVEL_PRACTICE_LEARN	n/a	n/a	wheel	-1	-1	-1	14.9838	-5.88401	9.57624	12.3302	9.8596	11.3758	n/a	n/a	n/a	10.373	9.64647	16.535339355	3.7	1	YC1	R1062J
3.75	0.016	318800	TRAVEL_PRACTICE_LEARN	n/a	n/a	wheel	-1	-1	-1	14.9838	-5.88401	9.57624	12.3302	9.8596	11.3758	n/a	n/a	n/a	10.3435	9.74595	16.535339355	3.716	1	YC1	R1062J
3.766	0.018	318816	TRAVEL_PRACTICE_LEARN	n/a	n/a	wheel	-1	-1	-1	14.9838	-5.88401	9.57624	12.3302	9.8596	11.3758	n/a	n/a	n/a	10.3146	9.84327	16.535339355	3.732	1	YC1	R1062J
3.784	0.017	318834	TRAVEL_PRACTICE_LEARN	n/a	n/a	wheel	-1	-1	-1	14.9838	-5.88401	9.57624	12.3302	9.8596	11.3758	n/a	n/a	n/a	10.2871	9.93591	16.535339355	3.75	1	YC1	R1062J
3.801	0.016	318851	TRAVEL_PRACTICE_LEARN	n/a	n/a	wheel	-1	-1	-1	14.9838	-5.88401	9.57624	12.3302	9.8596	11.3758	n/a	n/a	n/a	10.2593	10.0295	16.535339355	3.767	1	YC1	R1062J
3.817	0.017	318867	TRAVEL_PRACTICE_LEARN	n/a	n/a	wheel	-1	-1	-1	14.9838	-5.88401	9.57624	12.3302	9.8596	11.3758	n/a	n/a	n/a	10.2299	10.1286	16.535339355	3.783	1	YC1	R1062J
3.834	0.017	318884	TRAVEL_PRACTICE_LEARN	n/a	n/a	wheel	-1	-1	-1	14.9838	-5.88401	9.57624	12.3302	9.8596	11.3758	n/a	n/a	n/a	10.2004	10.228	16.535339355	3.8	1	YC1	R1062J
3.851	0.016	318901	TRAVEL_PRACTICE_LEARN	n/a	n/a	wheel	-1	-1	-1	14.9838	-5.88401	9.57624	12.3302	9.8596	11.3758	n/a	n/a	n/a	10.1727	10.3212	16.535339355	3.817	1	YC1	R1062J
3.867	0.017	318917	TRAVEL_PRACTICE_LEARN	n/a	n/a	wheel	-1	-1	-1	14.9838	-5.88401	9.57624	12.3302	9.8596	11.3758	n/a	n/a	n/a	10.1437	10.419	16.535339355	3.833	1	YC1	R1062J
3.884	0.016	318934	TRAVEL_PRACTICE_LEARN	n/a	n/a	wheel	-1	-1	-1	14.9838	-5.88401	9.57624	12.3302	9.8596	11.3758	n/a	n/a	n/a	10.1156	10.5136	16.535339355	3.85	1	YC1	R1062J
3.9	0.016	318950	TRAVEL_PRACTICE_LEARN	n/a	n/a	wheel	-1	-1	-1	14.9838	-5.88401	9.57624	12.3302	9.8596	11.3758	n/a	n/a	n/a	10.0876	10.608	16.535339355	3.866	1	YC1	R1062J
3.916	0.017	318966	TRAVEL_PRACTICE_LEARN	n/a	n/a	wheel	-1	-1	-1	14.9838	-5.88401	9.57624	12.3302	9.8596	11.3758	n/a	n/a	n/a	10.058	10.7075	16.535339355	3.882	1	YC1	R1062J
3.933	0.018	318983	TRAVEL_PRACTICE_LEARN	n/a	n/a	wheel	-1	-1	-1	14.9838	-5.88401	9.57624	12.3302	9.8596	11.3758	n/a	n/a	n/a	10.0306	10.7998	16.535339355	3.899	1	YC1	R1062J
3.951	0.016	319001	TRAVEL_PRACTICE_LEARN	n/a	n/a	wheel	-1	-1	-1	14.9838	-5.88401	9.57624	12.3302	9.8596	11.3758	n/a	n/a	n/a	10.0031	10.8925	16.535339355	3.917	1	YC1	R1062J
3.967	0.016	319017	TRAVEL_PRACTICE_LEARN	n/a	n/a	wheel	-1	-1	-1	14.9838	-5.88401	9.57624	12.3302	9.8596	11.3758	n/a	n/a	n/a	9.973959999999998	10.9906	16.535339355	3.933	1	YC1	R1062J
3.983	0.017	319033	TRAVEL_PRACTICE_LEARN	n/a	n/a	wheel	-1	-1	-1	14.9838	-5.88401	9.57624	12.3302	9.8596	11.3758	n/a	n/a	n/a	9.94458	11.0896	16.535339355	3.949	1	YC1	R1062J
4.0	0.018	319050	TRAVEL_PRACTICE_LEARN	n/a	n/a	wheel	-1	-1	-1	14.9838	-5.88401	9.57624	12.3302	9.8596	11.3758	n/a	n/a	n/a	9.91722	11.1817	16.535339355	3.966	1	YC1	R1062J
4.018	0.016	319068	TRAVEL_PRACTICE_LEARN	n/a	n/a	wheel	-1	-1	-1	14.9838	-5.88401	9.57624	12.3302	9.8596	11.3758	n/a	n/a	n/a	9.88869	11.2778	16.535339355	3.984	1	YC1	R1062J
4.034	8.051	319084	TRAVEL_PRACTICE_LEARN	n/a	n/a	wheel	-1	-1	-1	14.9838	-5.88401	9.57624	12.3302	9.8596	11.3758	n/a	n/a	n/a	9.8596	11.3758	16.535339355	4.0	1	YC1	R1062J
12.085	5.0	327135	NAV_PRACTICE_LEARN	n/a	wordpools/wordpool.txt	wheel	-1	-1	-1	-3.764219999999999	-1.1987	9.57624	12.3302	8.87688	11.621	0.033	5.049999999999999	18.036826395047	-3.764219999999999	-1.1987	339.419464111	n/a	1	YC1	R1062J
12.118	0.017	327168	TRAVEL_PRACTICE_LEARN	n/a	n/a	wheel	-1	-1	-1	-3.764219999999999	-1.1987	9.57624	12.3302	8.87688	11.621	n/a	n/a	n/a	-3.764219999999999	-1.1987	339.419464111	0.0	1	YC1	R1062J
12.135	0.016	327185	TRAVEL_PRACTICE_LEARN	n/a	n/a	wheel	-1	-1	-1	-3.764219999999999	-1.1987	9.57624	12.3302	8.87688	11.621	n/a	n/a	n/a	-3.74431	-1.20634	339.021697998	0.017	1	YC1	R1062J
12.151	0.017	327201	TRAVEL_PRACTICE_LEARN	n/a	n/a	wheel	-1	-1	-1	-3.764219999999999	-1.1987	9.57624	12.3302	8.87688	11.621	n/a	n/a	n/a	-3.744359999999999	-1.20648	338.612976074	0.033	1	YC1	R1062J
12.168	0.017	327218	TRAVEL_PRACTICE_LEARN	n/a	n/a	wheel	-1	-1	-1	-3.764219999999999	-1.1987	9.57624	12.3302	8.87688	11.621	n/a	n/a	n/a	-3.744419999999999	-1.20662	338.208312988	0.05	1	YC1	R1062J
12.185	0.017	327235	TRAVEL_PRACTICE_LEARN	n/a	n/a	wheel	-1	-1	-1	-3.764219999999999	-1.1987	9.57624	12.3302	8.87688	11.621	n/a	n/a	n/a	-3.744479999999999	-1.20676	337.801696777	0.067	1	YC1	R1062J
12.202	0.016	327252	TRAVEL_PRACTICE_LEARN	n/a	n/a	wheel	-1	-1	-1	-3.764219999999999	-1.1987	9.57624	12.3302	8.87688	11.621	n/a	n/a	n/a	-3.74453	-1.2069	337.392059326	0.084	1	YC1	R1062J
12.218	0.017	327268	TRAVEL_PRACTICE_LEARN	n/a	n/a	wheel	-1	-1	-1	-3.764219999999999	-1.1987	9.57624	12.3302	8.87688	11.621	n/a	n/a	n/a	-3.74459	-1.207039999999999	336.976928711	0.1	1	YC1	R1062J
12.235	0.016	327285	TRAVEL_PRACTICE_LEARN	n/a	n/a	wheel	-1	-1	-1	-3.764219999999999	-1.1987	9.57624	12.3302	8.87688	11.621	n/a	n/a	n/a	-3.74465	-1.207179999999999	336.568511963	0.117	1	YC1	R1062J
12.251	0.018	327301	TRAVEL_PRACTICE_LEARN	n/a	n/a	wheel	-1	-1	-1	-3.764219999999999	-1.1987	9.57624	12.3302	8.87688	11.621	n/a	n/a	n/a	-3.74471	-1.20731	336.185211182	0.133	1	YC1	R1062J
12.269	0.015	327319	TRAVEL_PRACTICE_LEARN	n/a	n/a	wheel	-1	-1	-1	-3.764219999999999	-1.1987	9.57624	12.3302	8.87688	11.621	n/a	n/a	n/a	-3.74478	-1.20746	335.756896973	0.151	1	YC1	R1062J
12.284	0.017	327334	TRAVEL_PRACTICE_LEARN	n/a	n/a	wheel	-1	-1	-1	-3.764219999999999	-1.1987	9.57624	12.3302	8.87688	11.621	n/a	n/a	n/a	-3.744839999999999	-1.207589999999999	335.367340088	0.166	1	YC1	R1062J
12.301	0.017	327351	TRAVEL_PRACTICE_LEARN	n/a	n/a	wheel	-1	-1	-1	-3.764219999999999	-1.1987	9.57624	12.3302	8.87688	11.621	n/a	n/a	n/a	-3.744899999999999	-1.20774	334.940704346	0.183	1	YC1	R1062J
12.318	0.017	327368	TRAVEL_PRACTICE_LEARN	n/a	n/a	wheel	-1	-1	-1	-3.764219999999999	-1.1987	9.57624	12.3302	8.87688	11.621	n/a	n/a	n/a	-3.744959999999999	-1.20787	334.55166626	0.2	1	YC1	R1062J
12.335	0.016	327385	TRAVEL_PRACTICE_LEARN	n/a	n/a	wheel	-1	-1	-1	-3.764219999999999	-1.1987	9.57624	12.3302	8.87688	11.621	n/a	n/a	n/a	-3.745029999999999	-1.208	334.150238037	0.217	1	YC1	R1062J
12.351	0.017	327401	TRAVEL_PRACTICE_LEARN	n/a	n/a	wheel	-1	-1	-1	-3.764219999999999	-1.1987	9.57624	12.3302	8.87688	11.621	n/a	n/a	n/a	-3.745099999999999	-1.20814	333.721160889	0.233	1	YC1	R1062J
12.368	0.017	327418	TRAVEL_PRACTICE_LEARN	n/a	n/a	wheel	-1	-1	-1	-3.764219999999999	-1.1987	9.57624	12.3302	8.87688	11.621	n/a	n/a	n/a	-3.745169999999999	-1.20828	333.316162109	0.25	1	YC1	R1062J
12.385	0.016	327435	TRAVEL_PRACTICE_LEARN	n/a	n/a	wheel	-1	-1	-1	-3.764219999999999	-1.1987	9.57624	12.3302	8.87688	11.621	n/a	n/a	n/a	-3.745229999999999	-1.20841	332.923950195	0.267	1	YC1	R1062J
12.401	0.017	327451	TRAVEL_PRACTICE_LEARN	n/a	n/a	wheel	-1	-1	-1	-3.764219999999999	-1.1987	9.57624	12.3302	8.87688	11.621	n/a	n/a	n/a	-3.745299999999999	-1.20855	332.49798584	0.283	1	YC1	R1062J
12.418	0.016	327468	TRAVEL_PRACTICE_LEARN	n/a	n/a	wheel	-1	-1	-1	-3.764219999999999	-1.1987	9.57624	12.3302	8.87688	11.621	n/a	n/a	n/a	-3.745379999999999	-1.20868	332.090301514	0.3	1	YC1	R1062J
12.434	0.018	327484	TRAVEL_PRACTICE_LEARN	n/a	n/a	wheel	-1	-1	-1	-3.764219999999999	-1.1987	9.57624	12.3302	8.87688	11.621	n/a	n/a	n/a	-3.745439999999999	-1.20882	331.693664551	0.316	1	YC1	R1062J
12.452	0.016	327502	TRAVEL_PRACTICE_LEARN	n/a	n/a	wheel	-1	-1	-1	-3.764219999999999	-1.1987	9.57624	12.3302	8.87688	11.621	n/a	n/a	n/a	-3.74552	-1.20895	331.276153564	0.334	1	YC1	R1062J
12.468	0.017	327518	TRAVEL_PRACTICE_LEARN	n/a	n/a	wheel	-1	-1	-1	-3.764219999999999	-1.1987	9.57624	12.3302	8.87688	11.621	n/a	n/a	n/a	-3.74559	-1.209079999999999	330.885253906	0.35	1	YC1	R1062J
12.485	0.017	327535	TRAVEL_PRACTICE_LEARN	n/a	n/a	wheel	-1	-1	-1	-3.764219999999999	-1.1987	9.57624	12.3302	8.87688	11.621	n/a	n/a	n/a	-3.74567	-1.20922	330.449859619	0.367	1	YC1	R1062J
12.502	0.017	327552	TRAVEL_PRACTICE_LEARN	n/a	n/a	wheel	-1	-1	-1	-3.764219999999999	-1.1987	9.57624	12.3302	8.87688	11.621	n/a	n/a	n/a	-3.74574	-1.209349999999999	330.061584473	0.384	1	YC1	R1062J
12.519	0.015	327569	TRAVEL_PRACTICE_LEARN	n/a	n/a	wheel	-1	-1	-1	-3.764219999999999	-1.1987	9.57624	12.3302	8.87688	11.621	n/a	n/a	n/a	-3.74582	-1.20948	329.652862549	0.401	1	YC1	R1062J
12.534	0.017	327584	TRAVEL_PRACTICE_LEARN	n/a	n/a	wheel	-1	-1	-1	-3.764219999999999	-1.1987	9.57624	12.3302	8.87688	11.621	n/a	n/a	n/a	-3.745899999999999	-1.20961	329.238189697	0.416	1	YC1	R1062J
12.551	0.017	327601	TRAVEL_PRACTICE_LEARN	n/a	n/a	wheel	-1	-1	-1	-3.764219999999999	-1.1987	9.57624	12.3302	8.87688	11.621	n/a	n/a	n/a	-3.745969999999999	-1.20974	328.824523926	0.433	1	YC1	R1062J
12.568	0.017	327618	TRAVEL_PRACTICE_LEARN	n/a	n/a	wheel	-1	-1	-1	-3.764219999999999	-1.1987	9.57624	12.3302	8.87688	11.621	n/a	n/a	n/a	-3.746049999999999	-1.209859999999999	328.439758301	0.45	1	YC1	R1062J
12.585	0.017	327635	TRAVEL_PRACTICE_LEARN	n/a	n/a	wheel	-1	-1	-1	-3.764219999999999	-1.1987	9.57624	12.3302	8.87688	11.621	n/a	n/a	n/a	-3.74613	-1.209989999999999	328.035339355	0.467	1	YC1	R1062J
12.602	0.016	327652	TRAVEL_PRACTICE_LEARN	n/a	n/a	wheel	-1	-1	-1	-3.764219999999999	-1.1987	9.57624	12.3302	8.87688	11.621	n/a	n/a	n/a	-3.74711	-1.209549999999999	327.615966797	0.484	1	YC1	R1062J
12.618	0.017	327668	TRAVEL_PRACTICE_LEARN	n/a	n/a	wheel	-1	-1	-1	-3.764219999999999	-1.1987	9.57624	12.3302	8.87688	11.621	n/a	n/a	n/a	-3.747189999999999	-1.20968	327.201873779	0.5	1	YC1	R1062J
12.635	0.016	327685	TRAVEL_PRACTICE_LEARN	n/a	n/a	wheel	-1	-1	-1	-3.764219999999999	-1.1987	9.57624	12.3302	8.87688	11.621	n/a	n/a	n/a	-3.747269999999999	-1.2098	326.792144775	0.517	1	YC1	R1062J
12.651	0.017	327701	TRAVEL_PRACTICE_LEARN	n/a	n/a	wheel	-1	-1	-1	-3.764219999999999	-1.1987	9.57624	12.3302	8.87688	11.621	n/a	n/a	n/a	-3.74735	-1.20991	326.400543213	0.533	1	YC1	R1062J
12.668	0.017	327718	TRAVEL_PRACTICE_LEARN	n/a	n/a	wheel	-1	-1	-1	-3.764219999999999	-1.1987	9.57624	12.3302	8.87688	11.621	n/a	n/a	n/a	-3.74743	-1.21004	325.985687256	0.55	1	YC1	R1062J
12.685	0.017	327735	TRAVEL_PRACTICE_LEARN	n/a	n/a	wheel	-1	-1	-1	-3.764219999999999	-1.1987	9.57624	12.3302	8.87688	11.621	n/a	n/a	n/a	-3.74751	-1.21015	325.590087891	0.567	1	YC1	R1062J
12.702	0.016	327752	TRAVEL_PRACTICE_LEARN	n/a	n/a	wheel	-1	-1	-1	-3.764219999999999	-1.1987	9.57624	12.3302	8.87688	11.621	n/a	n/a	n/a	-3.74759	-1.21028	325.163879395	0.584	1	YC1	R1062J
12.718	0.017	327768	TRAVEL_PRACTICE_LEARN	n/a	n/a	wheel	-1	-1	-1	-3.764219999999999	-1.1987	9.57624	12.3302	8.87688	11.621	n/a	n/a	n/a	-3.747669999999999	-1.21039	324.753570557	0.6	1	YC1	R1062J
12.735	0.017	327785	TRAVEL_PRACTICE_LEARN	n/a	n/a	wheel	-1	-1	-1	-3.764219999999999	-1.1987	9.57624	12.3302	8.87688	11.621	n/a	n/a	n/a	-3.74776	-1.21051	324.34854126	0.617	1	YC1	R1062J
12.752	0.016	327802	TRAVEL_PRACTICE_LEARN	n/a	n/a	wheel	-1	-1	-1	-3.764219999999999	-1.1987	9.57624	12.3302	8.87688	11.621	n/a	n/a	n/a	-3.74784	-1.21062	323.953063965	0.634	1	YC1	R1062J
12.768	0.017	327818	TRAVEL_PRACTICE_LEARN	n/a	n/a	wheel	-1	-1	-1	-3.764219999999999	-1.1987	9.57624	12.3302	8.87688	11.621	n/a	n/a	n/a	-3.74792	-1.210739999999999	323.548095703	0.65	1	YC1	R1062J
12.785	0.016	327835	TRAVEL_PRACTICE_LEARN	n/a	n/a	wheel	-1	-1	-1	-3.764219999999999	-1.1987	9.57624	12.3302	8.87688	11.621	n/a	n/a	n/a	-3.748009999999999	-1.21086	323.130523682	0.667	1	YC1	R1062J
12.801	0.018	327851	TRAVEL_PRACTICE_LEARN	n/a	n/a	wheel	-1	-1	-1	-3.764219999999999	-1.1987	9.57624	12.3302	8.87688	11.621	n/a	n/a	n/a	-3.7481	-1.21097	322.728088379	0.683	1	YC1	R1062J
12.819	0.016	327869	TRAVEL_PRACTICE_LEARN	n/a	n/a	wheel	-1	-1	-1	-3.764219999999999	-1.1987	9.57624	12.3302	8.87688	11.621	n/a	n/a	n/a	-3.74819	-1.21109	322.316680908	0.701	1	YC1	R1062J
12.835	0.017	327885	TRAVEL_PRACTICE_LEARN	n/a	n/a	wheel	-1	-1	-1	-3.764219999999999	-1.1987	9.57624	12.3302	8.87688	11.621	n/a	n/a	n/a	-3.74827	-1.2112	321.92175293	0.717	1	YC1	R1062J
12.852	0.017	327902	TRAVEL_PRACTICE_LEARN	n/a	n/a	wheel	-1	-1	-1	-3.764219999999999	-1.1987	9.57624	12.3302	8.87688	11.621	n/a	n/a	n/a	-3.74837	-1.21132	321.488800049	0.734	1	YC1	R1062J
12.869	0.017	327919	TRAVEL_PRACTICE_LEARN	n/a	n/a	wheel	-1	-1	-1	-3.764219999999999	-1.1987	9.57624	12.3302	8.87688	11.621	n/a	n/a	n/a	-3.74846	-1.21143	321.087371826	0.751	1	YC1	R1062J
12.886	0.016	327936	TRAVEL_PRACTICE_LEARN	n/a	n/a	wheel	-1	-1	-1	-3.764219999999999	-1.1987	9.57624	12.3302	8.87688	11.621	n/a	n/a	n/a	-3.748549999999999	-1.21154	320.682678223	0.768	1	YC1	R1062J
12.902	0.016	327952	TRAVEL_PRACTICE_LEARN	n/a	n/a	wheel	-1	-1	-1	-3.764219999999999	-1.1987	9.57624	12.3302	8.87688	11.621	n/a	n/a	n/a	-3.74864	-1.211649999999999	320.26965332	0.784	1	YC1	R1062J
12.918	0.017	327968	TRAVEL_PRACTICE_LEARN	n/a	n/a	wheel	-1	-1	-1	-3.764219999999999	-1.1987	9.57624	12.3302	8.87688	11.621	n/a	n/a	n/a	-3.74873	-1.211759999999999	319.855438232	0.8	1	YC1	R1062J
12.935	0.016	327985	TRAVEL_PRACTICE_LEARN	n/a	n/a	wheel	-1	-1	-1	-3.764219999999999	-1.1987	9.57624	12.3302	8.87688	11.621	n/a	n/a	n/a	-3.748829999999999	-1.21187	319.45413208	0.817	1	YC1	R1062J
12.951	0.017	328001	TRAVEL_PRACTICE_LEARN	n/a	n/a	wheel	-1	-1	-1	-3.764219999999999	-1.1987	9.57624	12.3302	8.87688	11.621	n/a	n/a	n/a	-3.74891	-1.21198	319.068084717	0.833	1	YC1	R1062J
12.968	0.016	328018	TRAVEL_PRACTICE_LEARN	n/a	n/a	wheel	-1	-1	-1	-3.764219999999999	-1.1987	9.57624	12.3302	8.87688	11.621	n/a	n/a	n/a	-3.74901	-1.212089999999999	318.639282227	0.85	1	YC1	R1062J
12.984	0.017	328034	TRAVEL_PRACTICE_LEARN	n/a	n/a	wheel	-1	-1	-1	-3.764219999999999	-1.1987	9.57624	12.3302	8.87688	11.621	n/a	n/a	n/a	-3.749099999999999	-1.21219	318.252685547	0.866	1	YC1	R1062J
13.001	0.017	328051	TRAVEL_PRACTICE_LEARN	n/a	n/a	wheel	-1	-1	-1	-3.764219999999999	-1.1987	9.57624	12.3302	8.87688	11.621	n/a	n/a	n/a	-3.7492	-1.212299999999999	317.846466064	0.883	1	YC1	R1062J
13.018	0.017	328068	TRAVEL_PRACTICE_LEARN	n/a	n/a	wheel	-1	-1	-1	-3.764219999999999	-1.1987	9.57624	12.3302	8.87688	11.621	n/a	n/a	n/a	-3.749299999999999	-1.21241	317.438720703	0.9	1	YC1	R1062J
13.035	0.017	328085	TRAVEL_PRACTICE_LEARN	n/a	n/a	wheel	-1	-1	-1	-3.764219999999999	-1.1987	9.57624	12.3302	8.87688	11.621	n/a	n/a	n/a	-3.7494	-1.21251	317.028564453	0.917	1	YC1	R1062J
13.052	0.017	328102	TRAVEL_PRACTICE_LEARN	n/a	n/a	wheel	-1	-1	-1	-3.764219999999999	-1.1987	9.57624	12.3302	8.87688	11.621	n/a	n/a	n/a	-3.749499999999999	-1.21262	316.617614746	0.934	1	YC1	R1062J
13.069	0.017	328119	TRAVEL_PRACTICE_LEARN	n/a	n/a	wheel	-1	-1	-1	-3.764219999999999	-1.1987	9.57624	12.3302	8.87688	11.621	n/a	n/a	n/a	-3.7496	-1.21273	316.198394775	0.951	1	YC1	R1062J
13.086	0.016	328136	TRAVEL_PRACTICE_LEARN	n/a	n/a	wheel	-1	-1	-1	-3.764219999999999	-1.1987	9.57624	12.3302	8.87688	11.621	n/a	n/a	n/a	-3.749699999999999	-1.21283	315.784423828	0.968	1	YC1	R1062J
13.102	0.016	328152	TRAVEL_PRACTICE_LEARN	n/a	n/a	wheel	-1	-1	-1	-3.764219999999999	-1.1987	9.57624	12.3302	8.87688	11.621	n/a	n/a	n/a	-3.7498	-1.21293	315.383789062	0.984	1	YC1	R1062J
13.118	0.017	328168	TRAVEL_PRACTICE_LEARN	n/a	n/a	wheel	-1	-1	-1	-3.764219999999999	-1.1987	9.57624	12.3302	8.87688	11.621	n/a	n/a	n/a	-3.74979	-1.21293	315.401885986	1.0	1	YC1	R1062J
13.135	0.017	328185	TRAVEL_PRACTICE_LEARN	n/a	n/a	wheel	-1	-1	-1	-3.764219999999999	-1.1987	9.57624	12.3302	8.87688	11.621	n/a	n/a	n/a	-3.69465	-1.12815	315.401885986	1.017	1	YC1	R1062J
13.152	0.016	328202	TRAVEL_PRACTICE_LEARN	n/a	n/a	wheel	-1	-1	-1	-3.764219999999999	-1.1987	9.57624	12.3302	8.87688	11.621	n/a	n/a	n/a	-3.628029999999999	-1.060589999999999	315.401885986	1.034	1	YC1	R1062J
13.168	0.017	328218	TRAVEL_PRACTICE_LEARN	n/a	n/a	wheel	-1	-1	-1	-3.764219999999999	-1.1987	9.57624	12.3302	8.87688	11.621	n/a	n/a	n/a	-3.557199999999999	-0.988754	315.401885986	1.05	1	YC1	R1062J
13.185	0.016	328235	TRAVEL_PRACTICE_LEARN	n/a	n/a	wheel	-1	-1	-1	-3.764219999999999	-1.1987	9.57624	12.3302	8.87688	11.621	n/a	n/a	n/a	-3.4857	-0.9162529999999991	315.401885986	1.067	1	YC1	R1062J
13.201	0.017	328251	TRAVEL_PRACTICE_LEARN	n/a	n/a	wheel	-1	-1	-1	-3.764219999999999	-1.1987	9.57624	12.3302	8.87688	11.621	n/a	n/a	n/a	-3.417419999999999	-0.8469989999999991	315.401885986	1.083	1	YC1	R1062J
13.218	0.016	328268	TRAVEL_PRACTICE_LEARN	n/a	n/a	wheel	-1	-1	-1	-3.764219999999999	-1.1987	9.57624	12.3302	8.87688	11.621	n/a	n/a	n/a	-3.34629	-0.774866	315.401885986	1.1	1	YC1	R1062J
13.234	0.018	328284	TRAVEL_PRACTICE_LEARN	n/a	n/a	wheel	-1	-1	-1	-3.764219999999999	-1.1987	9.57624	12.3302	8.87688	11.621	n/a	n/a	n/a	-3.277169999999999	-0.70477	315.401885986	1.116	1	YC1	R1062J
13.252	0.017	328302	TRAVEL_PRACTICE_LEARN	n/a	n/a	wheel	-1	-1	-1	-3.764219999999999	-1.1987	9.57624	12.3302	8.87688	11.621	n/a	n/a	n/a	-3.20616	-0.6327559999999991	315.401885986	1.134	1	YC1	R1062J
13.269	0.016	328319	TRAVEL_PRACTICE_LEARN	n/a	n/a	wheel	-1	-1	-1	-3.764219999999999	-1.1987	9.57624	12.3302	8.87688	11.621	n/a	n/a	n/a	-3.137379999999999	-0.563011	315.401885986	1.151	1	YC1	R1062J
13.285	0.016	328335	TRAVEL_PRACTICE_LEARN	n/a	n/a	wheel	-1	-1	-1	-3.764219999999999	-1.1987	9.57624	12.3302	8.87688	11.621	n/a	n/a	n/a	-3.06305	-0.487622	315.401885986	1.167	1	YC1	R1062J
13.301	0.018	328351	TRAVEL_PRACTICE_LEARN	n/a	n/a	wheel	-1	-1	-1	-3.764219999999999	-1.1987	9.57624	12.3302	8.87688	11.621	n/a	n/a	n/a	-2.99359	-0.41718000000000005	315.401885986	1.183	1	YC1	R1062J
13.319	0.016	328369	TRAVEL_PRACTICE_LEARN	n/a	n/a	wheel	-1	-1	-1	-3.764219999999999	-1.1987	9.57624	12.3302	8.87688	11.621	n/a	n/a	n/a	-2.92621	-0.348849	315.401885986	1.201	1	YC1	R1062J
13.335	0.017	328385	TRAVEL_PRACTICE_LEARN	n/a	n/a	wheel	-1	-1	-1	-3.764219999999999	-1.1987	9.57624	12.3302	8.87688	11.621	n/a	n/a	n/a	-2.85581	-0.277455	315.401885986	1.217	1	YC1	R1062J
13.352	0.016	328402	TRAVEL_PRACTICE_LEARN	n/a	n/a	wheel	-1	-1	-1	-3.764219999999999	-1.1987	9.57624	12.3302	8.87688	11.621	n/a	n/a	n/a	-2.78175	-0.202357	315.401885986	1.234	1	YC1	R1062J
13.368	0.017	328418	TRAVEL_PRACTICE_LEARN	n/a	n/a	wheel	-1	-1	-1	-3.764219999999999	-1.1987	9.57624	12.3302	8.87688	11.621	n/a	n/a	n/a	-2.71395	-0.13358999999999902	315.401885986	1.25	1	YC1	R1062J
13.385	0.017	328435	TRAVEL_PRACTICE_LEARN	n/a	n/a	wheel	-1	-1	-1	-3.764219999999999	-1.1987	9.57624	12.3302	8.87688	11.621	n/a	n/a	n/a	-2.64398	-0.06263979999999901	315.401885986	1.267	1	YC1	R1062J
13.402	0.016	328452	TRAVEL_PRACTICE_LEARN	n/a	n/a	wheel	-1	-1	-1	-3.764219999999999	-1.1987	9.57624	12.3302	8.87688	11.621	n/a	n/a	n/a	-2.57497	0.00734893	315.401885986	1.284	1	YC1	R1062J
13.418	0.017	328468	TRAVEL_PRACTICE_LEARN	n/a	n/a	wheel	-1	-1	-1	-3.764219999999999	-1.1987	9.57624	12.3302	8.87688	11.621	n/a	n/a	n/a	-2.50271	0.08063159999999901	315.401885986	1.3	1	YC1	R1062J
13.435	0.017	328485	TRAVEL_PRACTICE_LEARN	n/a	n/a	wheel	-1	-1	-1	-3.764219999999999	-1.1987	9.57624	12.3302	8.87688	11.621	n/a	n/a	n/a	-2.43162	0.152722	315.401885986	1.317	1	YC1	R1062J
13.452	0.016	328502	TRAVEL_PRACTICE_LEARN	n/a	n/a	wheel	-1	-1	-1	-3.764219999999999	-1.1987	9.57624	12.3302	8.87688	11.621	n/a	n/a	n/a	-2.36425	0.221049	315.401885986	1.334	1	YC1	R1062J
13.468	0.017	328518	TRAVEL_PRACTICE_LEARN	n/a	n/a	wheel	-1	-1	-1	-3.764219999999999	-1.1987	9.57624	12.3302	8.87688	11.621	n/a	n/a	n/a	-2.29305	0.29325499999999904	315.401885986	1.35	1	YC1	R1062J
13.485	0.017	328535	TRAVEL_PRACTICE_LEARN	n/a	n/a	wheel	-1	-1	-1	-3.764219999999999	-1.1987	9.57624	12.3302	8.87688	11.621	n/a	n/a	n/a	-2.22115	0.36617000000000005	315.401885986	1.367	1	YC1	R1062J
13.502	0.017	328552	TRAVEL_PRACTICE_LEARN	n/a	n/a	wheel	-1	-1	-1	-3.764219999999999	-1.1987	9.57624	12.3302	8.87688	11.621	n/a	n/a	n/a	-2.15138	0.43691999999999903	315.401885986	1.384	1	YC1	R1062J
13.519	0.016	328569	TRAVEL_PRACTICE_LEARN	n/a	n/a	wheel	-1	-1	-1	-3.764219999999999	-1.1987	9.57624	12.3302	8.87688	11.621	n/a	n/a	n/a	-2.080509999999999	0.508797	315.401885986	1.401	1	YC1	R1062J
13.535	0.016	328585	TRAVEL_PRACTICE_LEARN	n/a	n/a	wheel	-1	-1	-1	-3.764219999999999	-1.1987	9.57624	12.3302	8.87688	11.621	n/a	n/a	n/a	-2.011039999999999	0.5792469999999991	315.401885986	1.417	1	YC1	R1062J
13.551	0.017	328601	TRAVEL_PRACTICE_LEARN	n/a	n/a	wheel	-1	-1	-1	-3.764219999999999	-1.1987	9.57624	12.3302	8.87688	11.621	n/a	n/a	n/a	-1.9399700000000002	0.65132	315.401885986	1.433	1	YC1	R1062J
13.568	0.017	328618	TRAVEL_PRACTICE_LEARN	n/a	n/a	wheel	-1	-1	-1	-3.764219999999999	-1.1987	9.57624	12.3302	8.87688	11.621	n/a	n/a	n/a	-1.8714	0.7208609999999991	315.401885986	1.45	1	YC1	R1062J
13.585	0.016	328635	TRAVEL_PRACTICE_LEARN	n/a	n/a	wheel	-1	-1	-1	-3.764219999999999	-1.1987	9.57624	12.3302	8.87688	11.621	n/a	n/a	n/a	-1.8018	0.791443	315.401885986	1.467	1	YC1	R1062J
13.601	0.018	328651	TRAVEL_PRACTICE_LEARN	n/a	n/a	wheel	-1	-1	-1	-3.764219999999999	-1.1987	9.57624	12.3302	8.87688	11.621	n/a	n/a	n/a	-1.73075	0.863495	315.401885986	1.483	1	YC1	R1062J
13.619	0.016	328669	TRAVEL_PRACTICE_LEARN	n/a	n/a	wheel	-1	-1	-1	-3.764219999999999	-1.1987	9.57624	12.3302	8.87688	11.621	n/a	n/a	n/a	-1.6590600000000002	0.9362009999999991	315.401885986	1.501	1	YC1	R1062J
13.635	0.016	328685	TRAVEL_PRACTICE_LEARN	n/a	n/a	wheel	-1	-1	-1	-3.764219999999999	-1.1987	9.57624	12.3302	8.87688	11.621	n/a	n/a	n/a	-1.59232	1.00388	315.401885986	1.517	1	YC1	R1062J
13.651	0.018	328701	TRAVEL_PRACTICE_LEARN	n/a	n/a	wheel	-1	-1	-1	-3.764219999999999	-1.1987	9.57624	12.3302	8.87688	11.621	n/a	n/a	n/a	-1.517919999999999	1.07934	315.401885986	1.533	1	YC1	R1062J
13.669	0.016	328719	TRAVEL_PRACTICE_LEARN	n/a	n/a	wheel	-1	-1	-1	-3.764219999999999	-1.1987	9.57624	12.3302	8.87688	11.621	n/a	n/a	n/a	-1.45157	1.14662	315.401885986	1.551	1	YC1	R1062J
13.685	0.017	328735	TRAVEL_PRACTICE_LEARN	n/a	n/a	wheel	-1	-1	-1	-3.764219999999999	-1.1987	9.57624	12.3302	8.87688	11.621	n/a	n/a	n/a	-1.38042	1.21878	315.401885986	1.567	1	YC1	R1062J
13.702	0.017	328752	TRAVEL_PRACTICE_LEARN	n/a	n/a	wheel	-1	-1	-1	-3.764219999999999	-1.1987	9.57624	12.3302	8.87688	11.621	n/a	n/a	n/a	-1.30799	1.292219999999999	315.401885986	1.584	1	YC1	R1062J
13.719	0.016	328769	TRAVEL_PRACTICE_LEARN	n/a	n/a	wheel	-1	-1	-1	-3.764219999999999	-1.1987	9.57624	12.3302	8.87688	11.621	n/a	n/a	n/a	-1.23898	1.362209999999999	315.401885986	1.601	1	YC1	R1062J
13.735	0.016	328785	TRAVEL_PRACTICE_LEARN	n/a	n/a	wheel	-1	-1	-1	-3.764219999999999	-1.1987	9.57624	12.3302	8.87688	11.621	n/a	n/a	n/a	-1.16751	1.4347	315.401885986	1.617	1	YC1	R1062J
13.751	0.017	328801	TRAVEL_PRACTICE_LEARN	n/a	n/a	wheel	-1	-1	-1	-3.764219999999999	-1.1987	9.57624	12.3302	8.87688	11.621	n/a	n/a	n/a	-1.096009999999999	1.507209999999999	315.401885986	1.633	1	YC1	R1062J
13.768	0.017	328818	TRAVEL_PRACTICE_LEARN	n/a	n/a	wheel	-1	-1	-1	-3.764219999999999	-1.1987	9.57624	12.3302	8.87688	11.621	n/a	n/a	n/a	-1.03008	1.57406	315.401885986	1.65	1	YC1	R1062J
13.785	0.017	328835	TRAVEL_PRACTICE_LEARN	n/a	n/a	wheel	-1	-1	-1	-3.764219999999999	-1.1987	9.57624	12.3302	8.87688	11.621	n/a	n/a	n/a	-0.9590109999999991	1.646139999999999	315.401885986	1.667	1	YC1	R1062J
13.802	0.016	328852	TRAVEL_PRACTICE_LEARN	n/a	n/a	wheel	-1	-1	-1	-3.764219999999999	-1.1987	9.57624	12.3302	8.87688	11.621	n/a	n/a	n/a	-0.8886330000000001	1.71751	315.401885986	1.684	1	YC1	R1062J
13.818	0.017	328868	TRAVEL_PRACTICE_LEARN	n/a	n/a	wheel	-1	-1	-1	-3.764219999999999	-1.1987	9.57624	12.3302	8.87688	11.621	n/a	n/a	n/a	-0.8169189999999991	1.79024	315.401885986	1.7	1	YC1	R1062J
13.835	0.017	328885	TRAVEL_PRACTICE_LEARN	n/a	n/a	wheel	-1	-1	-1	-3.764219999999999	-1.1987	9.57624	12.3302	8.87688	11.621	n/a	n/a	n/a	-0.7459759999999991	1.862179999999999	315.401885986	1.717	1	YC1	R1062J
13.852	0.016	328902	TRAVEL_PRACTICE_LEARN	n/a	n/a	wheel	-1	-1	-1	-3.764219999999999	-1.1987	9.57624	12.3302	8.87688	11.621	n/a	n/a	n/a	-0.6786849999999991	1.93042	315.401885986	1.734	1	YC1	R1062J
13.868	0.017	328918	TRAVEL_PRACTICE_LEARN	n/a	n/a	wheel	-1	-1	-1	-3.764219999999999	-1.1987	9.57624	12.3302	8.87688	11.621	n/a	n/a	n/a	-0.6087529999999991	2.001339999999999	315.401885986	1.75	1	YC1	R1062J
13.885	0.016	328935	TRAVEL_PRACTICE_LEARN	n/a	n/a	wheel	-1	-1	-1	-3.764219999999999	-1.1987	9.57624	12.3302	8.87688	11.621	n/a	n/a	n/a	-0.5373919999999991	2.07371	315.401885986	1.767	1	YC1	R1062J
13.901	0.017	328951	TRAVEL_PRACTICE_LEARN	n/a	n/a	wheel	-1	-1	-1	-3.764219999999999	-1.1987	9.57624	12.3302	8.87688	11.621	n/a	n/a	n/a	-0.467831	2.14426	315.401885986	1.783	1	YC1	R1062J
13.918	0.017	328968	TRAVEL_PRACTICE_LEARN	n/a	n/a	wheel	-1	-1	-1	-3.764219999999999	-1.1987	9.57624	12.3302	8.87688	11.621	n/a	n/a	n/a	-0.397322	2.21576	315.401885986	1.8	1	YC1	R1062J
13.935	0.017	328985	TRAVEL_PRACTICE_LEARN	n/a	n/a	wheel	-1	-1	-1	-3.764219999999999	-1.1987	9.57624	12.3302	8.87688	11.621	n/a	n/a	n/a	-0.32772699999999905	2.28634	315.401885986	1.817	1	YC1	R1062J
13.952	0.017	329002	TRAVEL_PRACTICE_LEARN	n/a	n/a	wheel	-1	-1	-1	-3.764219999999999	-1.1987	9.57624	12.3302	8.87688	11.621	n/a	n/a	n/a	-0.25608799999999904	2.358989999999999	315.401885986	1.834	1	YC1	R1062J
13.969	0.016	329019	TRAVEL_PRACTICE_LEARN	n/a	n/a	wheel	-1	-1	-1	-3.764219999999999	-1.1987	9.57624	12.3302	8.87688	11.621	n/a	n/a	n/a	-0.185166	2.430909999999999	315.401885986	1.851	1	YC1	R1062J
13.985	0.016	329035	TRAVEL_PRACTICE_LEARN	n/a	n/a	wheel	-1	-1	-1	-3.764219999999999	-1.1987	9.57624	12.3302	8.87688	11.621	n/a	n/a	n/a	-0.11384000000000001	2.50325	315.401885986	1.867	1	YC1	R1062J
14.001	0.017	329051	TRAVEL_PRACTICE_LEARN	n/a	n/a	wheel	-1	-1	-1	-3.764219999999999	-1.1987	9.57624	12.3302	8.87688	11.621	n/a	n/a	n/a	-0.043431699999999004	2.57465	315.401885986	1.883	1	YC1	R1062J
14.018	0.017	329068	TRAVEL_PRACTICE_LEARN	n/a	n/a	wheel	-1	-1	-1	-3.764219999999999	-1.1987	9.57624	12.3302	8.87688	11.621	n/a	n/a	n/a	0.0228901	2.64191	315.401885986	1.9	1	YC1	R1062J
14.035	0.017	329085	TRAVEL_PRACTICE_LEARN	n/a	n/a	wheel	-1	-1	-1	-3.764219999999999	-1.1987	9.57624	12.3302	8.87688	11.621	n/a	n/a	n/a	0.0937153	2.71374	315.401885986	1.917	1	YC1	R1062J
14.052	0.016	329102	TRAVEL_PRACTICE_LEARN	n/a	n/a	wheel	-1	-1	-1	-3.764219999999999	-1.1987	9.57624	12.3302	8.87688	11.621	n/a	n/a	n/a	0.164894	2.78592	315.401885986	1.934	1	YC1	R1062J
14.068	0.017	329118	TRAVEL_PRACTICE_LEARN	n/a	n/a	wheel	-1	-1	-1	-3.764219999999999	-1.1987	9.57624	12.3302	8.87688	11.621	n/a	n/a	n/a	0.23528099999999902	2.8573	315.401885986	1.95	1	YC1	R1062J
14.085	0.017	329135	TRAVEL_PRACTICE_LEARN	n/a	n/a	wheel	-1	-1	-1	-3.764219999999999	-1.1987	9.57624	12.3302	8.87688	11.621	n/a	n/a	n/a	0.30514999999999903	2.92816	315.401885986	1.967	1	YC1	R1062J
14.102	0.016	329152	TRAVEL_PRACTICE_LEARN	n/a	n/a	wheel	-1	-1	-1	-3.764219999999999	-1.1987	9.57624	12.3302	8.87688	11.621	n/a	n/a	n/a	0.37581999999999904	2.99983	315.401885986	1.984	1	YC1	R1062J
14.118	0.018	329168	TRAVEL_PRACTICE_LEARN	n/a	n/a	wheel	-1	-1	-1	-3.764219999999999	-1.1987	9.57624	12.3302	8.87688	11.621	n/a	n/a	n/a	0.446653	3.07166	315.401885986	2.0	1	YC1	R1062J
14.136	0.016	329186	TRAVEL_PRACTICE_LEARN	n/a	n/a	wheel	-1	-1	-1	-3.764219999999999	-1.1987	9.57624	12.3302	8.87688	11.621	n/a	n/a	n/a	0.516598	3.14259	315.401885986	2.018	1	YC1	R1062J
14.152	0.016	329202	TRAVEL_PRACTICE_LEARN	n/a	n/a	wheel	-1	-1	-1	-3.764219999999999	-1.1987	9.57624	12.3302	8.87688	11.621	n/a	n/a	n/a	0.5869309999999991	3.213919999999999	315.401885986	2.034	1	YC1	R1062J
14.168	0.018	329218	TRAVEL_PRACTICE_LEARN	n/a	n/a	wheel	-1	-1	-1	-3.764219999999999	-1.1987	9.57624	12.3302	8.87688	11.621	n/a	n/a	n/a	0.658885	3.28689	315.401885986	2.05	1	YC1	R1062J
14.186	0.015	329236	TRAVEL_PRACTICE_LEARN	n/a	n/a	wheel	-1	-1	-1	-3.764219999999999	-1.1987	9.57624	12.3302	8.87688	11.621	n/a	n/a	n/a	0.7298109999999991	3.35882	315.401885986	2.068	1	YC1	R1062J
14.201	0.018	329251	TRAVEL_PRACTICE_LEARN	n/a	n/a	wheel	-1	-1	-1	-3.764219999999999	-1.1987	9.57624	12.3302	8.87688	11.621	n/a	n/a	n/a	0.7957999999999991	3.425739999999999	315.401885986	2.083	1	YC1	R1062J
14.219	0.016	329269	TRAVEL_PRACTICE_LEARN	n/a	n/a	wheel	-1	-1	-1	-3.764219999999999	-1.1987	9.57624	12.3302	8.87688	11.621	n/a	n/a	n/a	0.870712	3.50171	315.401885986	2.101	1	YC1	R1062J
14.235	0.016	329285	TRAVEL_PRACTICE_LEARN	n/a	n/a	wheel	-1	-1	-1	-3.764219999999999	-1.1987	9.57624	12.3302	8.87688	11.621	n/a	n/a	n/a	0.9362409999999991	3.568169999999999	315.401885986	2.117	1	YC1	R1062J
14.251	0.018	329301	TRAVEL_PRACTICE_LEARN	n/a	n/a	wheel	-1	-1	-1	-3.764219999999999	-1.1987	9.57624	12.3302	8.87688	11.621	n/a	n/a	n/a	1.00983	3.642799999999999	315.401885986	2.133	1	YC1	R1062J
14.269	0.016	329319	TRAVEL_PRACTICE_LEARN	n/a	n/a	wheel	-1	-1	-1	-3.764219999999999	-1.1987	9.57624	12.3302	8.87688	11.621	n/a	n/a	n/a	1.07986	3.71382	315.401885986	2.151	1	YC1	R1062J
14.285	0.016	329335	TRAVEL_PRACTICE_LEARN	n/a	n/a	wheel	-1	-1	-1	-3.764219999999999	-1.1987	9.57624	12.3302	8.87688	11.621	n/a	n/a	n/a	1.14689	3.78179	315.401885986	2.167	1	YC1	R1062J
14.301	0.018	329351	TRAVEL_PRACTICE_LEARN	n/a	n/a	wheel	-1	-1	-1	-3.764219999999999	-1.1987	9.57624	12.3302	8.87688	11.621	n/a	n/a	n/a	1.219349999999999	3.85527	315.401885986	2.183	1	YC1	R1062J
14.319	0.016	329369	TRAVEL_PRACTICE_LEARN	n/a	n/a	wheel	-1	-1	-1	-3.764219999999999	-1.1987	9.57624	12.3302	8.87688	11.621	n/a	n/a	n/a	1.28786	3.92475	315.401885986	2.201	1	YC1	R1062J
14.335	0.017	329385	TRAVEL_PRACTICE_LEARN	n/a	n/a	wheel	-1	-1	-1	-3.764219999999999	-1.1987	9.57624	12.3302	8.87688	11.621	n/a	n/a	n/a	1.35717	3.995039999999999	315.401885986	2.217	1	YC1	R1062J
14.352	0.017	329402	TRAVEL_PRACTICE_LEARN	n/a	n/a	wheel	-1	-1	-1	-3.764219999999999	-1.1987	9.57624	12.3302	8.87688	11.621	n/a	n/a	n/a	1.43148	4.0704	315.401885986	2.234	1	YC1	R1062J
14.369	0.016	329419	TRAVEL_PRACTICE_LEARN	n/a	n/a	wheel	-1	-1	-1	-3.764219999999999	-1.1987	9.57624	12.3302	8.87688	11.621	n/a	n/a	n/a	1.49747	4.137319999999999	315.401885986	2.251	1	YC1	R1062J
14.385	0.017	329435	TRAVEL_PRACTICE_LEARN	n/a	n/a	wheel	-1	-1	-1	-3.764219999999999	-1.1987	9.57624	12.3302	8.87688	11.621	n/a	n/a	n/a	1.572079999999999	4.212979999999999	315.401885986	2.267	1	YC1	R1062J
14.402	0.017	329452	TRAVEL_PRACTICE_LEARN	n/a	n/a	wheel	-1	-1	-1	-3.764219999999999	-1.1987	9.57624	12.3302	8.87688	11.621	n/a	n/a	n/a	1.64115	4.283039999999999	315.401885986	2.284	1	YC1	R1062J
14.419	0.016	329469	TRAVEL_PRACTICE_LEARN	n/a	n/a	wheel	-1	-1	-1	-3.764219999999999	-1.1987	9.57624	12.3302	8.87688	11.621	n/a	n/a	n/a	1.71073	4.3536	315.401885986	2.301	1	YC1	R1062J
14.435	0.017	329485	TRAVEL_PRACTICE_LEARN	n/a	n/a	wheel	-1	-1	-1	-3.764219999999999	-1.1987	9.57624	12.3302	8.87688	11.621	n/a	n/a	n/a	1.78075	4.424599999999999	315.401885986	2.317	1	YC1	R1062J
14.452	0.017	329502	TRAVEL_PRACTICE_LEARN	n/a	n/a	wheel	-1	-1	-1	-3.764219999999999	-1.1987	9.57624	12.3302	8.87688	11.621	n/a	n/a	n/a	1.85196	4.49683	315.401885986	2.334	1	YC1	R1062J
14.469	0.016	329519	TRAVEL_PRACTICE_LEARN	n/a	n/a	wheel	-1	-1	-1	-3.764219999999999	-1.1987	9.57624	12.3302	8.87688	11.621	n/a	n/a	n/a	1.9219400000000002	4.567789999999999	315.401885986	2.351	1	YC1	R1062J
14.485	0.017	329535	TRAVEL_PRACTICE_LEARN	n/a	n/a	wheel	-1	-1	-1	-3.764219999999999	-1.1987	9.57624	12.3302	8.87688	11.621	n/a	n/a	n/a	1.9929100000000002	4.639759999999999	315.401885986	2.367	1	YC1	R1062J
14.502	0.017	329552	TRAVEL_PRACTICE_LEARN	n/a	n/a	wheel	-1	-1	-1	-3.764219999999999	-1.1987	9.57624	12.3302	8.87688	11.621	n/a	n/a	n/a	2.063369999999999	4.71122	315.401885986	2.384	1	YC1	R1062J
14.519	0.016	329569	TRAVEL_PRACTICE_LEARN	n/a	n/a	wheel	-1	-1	-1	-3.764219999999999	-1.1987	9.57624	12.3302	8.87688	11.621	n/a	n/a	n/a	2.129259999999999	4.778039999999999	315.401885986	2.401	1	YC1	R1062J
14.535	0.017	329585	TRAVEL_PRACTICE_LEARN	n/a	n/a	wheel	-1	-1	-1	-3.764219999999999	-1.1987	9.57624	12.3302	8.87688	11.621	n/a	n/a	n/a	2.202269999999999	4.852079999999999	315.401885986	2.417	1	YC1	R1062J
14.552	0.016	329602	TRAVEL_PRACTICE_LEARN	n/a	n/a	wheel	-1	-1	-1	-3.764219999999999	-1.1987	9.57624	12.3302	8.87688	11.621	n/a	n/a	n/a	2.27278	4.923589999999999	315.401885986	2.434	1	YC1	R1062J
14.568	0.017	329618	TRAVEL_PRACTICE_LEARN	n/a	n/a	wheel	-1	-1	-1	-3.764219999999999	-1.1987	9.57624	12.3302	8.87688	11.621	n/a	n/a	n/a	2.34256	4.994349999999999	315.401885986	2.45	1	YC1	R1062J
14.585	0.017	329635	TRAVEL_PRACTICE_LEARN	n/a	n/a	wheel	-1	-1	-1	-3.764219999999999	-1.1987	9.57624	12.3302	8.87688	11.621	n/a	n/a	n/a	2.41331	5.066099999999999	315.401885986	2.467	1	YC1	R1062J
14.602	0.016	329652	TRAVEL_PRACTICE_LEARN	n/a	n/a	wheel	-1	-1	-1	-3.764219999999999	-1.1987	9.57624	12.3302	8.87688	11.621	n/a	n/a	n/a	2.48204	5.135799999999999	315.401885986	2.484	1	YC1	R1062J
14.618	0.017	329668	TRAVEL_PRACTICE_LEARN	n/a	n/a	wheel	-1	-1	-1	-3.764219999999999	-1.1987	9.57624	12.3302	8.87688	11.621	n/a	n/a	n/a	2.552859999999999	5.20762	315.401885986	2.5	1	YC1	R1062J
14.635	0.017	329685	TRAVEL_PRACTICE_LEARN	n/a	n/a	wheel	-1	-1	-1	-3.764219999999999	-1.1987	9.57624	12.3302	8.87688	11.621	n/a	n/a	n/a	2.62216	5.277899999999999	315.401885986	2.517	1	YC1	R1062J
14.652	0.016	329702	TRAVEL_PRACTICE_LEARN	n/a	n/a	wheel	-1	-1	-1	-3.764219999999999	-1.1987	9.57624	12.3302	8.87688	11.621	n/a	n/a	n/a	2.69238	5.349109999999999	315.401885986	2.534	1	YC1	R1062J
14.668	0.017	329718	TRAVEL_PRACTICE_LEARN	n/a	n/a	wheel	-1	-1	-1	-3.764219999999999	-1.1987	9.57624	12.3302	8.87688	11.621	n/a	n/a	n/a	2.76189	5.419609999999999	315.401885986	2.55	1	YC1	R1062J
14.685	0.017	329735	TRAVEL_PRACTICE_LEARN	n/a	n/a	wheel	-1	-1	-1	-3.764219999999999	-1.1987	9.57624	12.3302	8.87688	11.621	n/a	n/a	n/a	2.83284	5.491559999999999	315.401885986	2.567	1	YC1	R1062J
14.702	0.017	329752	TRAVEL_PRACTICE_LEARN	n/a	n/a	wheel	-1	-1	-1	-3.764219999999999	-1.1987	9.57624	12.3302	8.87688	11.621	n/a	n/a	n/a	2.90387	5.5636	315.401885986	2.584	1	YC1	R1062J
14.719	0.016	329769	TRAVEL_PRACTICE_LEARN	n/a	n/a	wheel	-1	-1	-1	-3.764219999999999	-1.1987	9.57624	12.3302	8.87688	11.621	n/a	n/a	n/a	2.974549999999999	5.63527	315.401885986	2.601	1	YC1	R1062J
14.735	0.017	329785	TRAVEL_PRACTICE_LEARN	n/a	n/a	wheel	-1	-1	-1	-3.764219999999999	-1.1987	9.57624	12.3302	8.87688	11.621	n/a	n/a	n/a	3.04481	5.70652	315.401885986	2.617	1	YC1	R1062J
14.752	0.017	329802	TRAVEL_PRACTICE_LEARN	n/a	n/a	wheel	-1	-1	-1	-3.764219999999999	-1.1987	9.57624	12.3302	8.87688	11.621	n/a	n/a	n/a	3.115479999999999	5.77819	315.401885986	2.634	1	YC1	R1062J
14.769	0.017	329819	TRAVEL_PRACTICE_LEARN	n/a	n/a	wheel	-1	-1	-1	-3.764219999999999	-1.1987	9.57624	12.3302	8.87688	11.621	n/a	n/a	n/a	3.184829999999999	5.848519999999999	315.401885986	2.651	1	YC1	R1062J
14.786	0.016	329836	TRAVEL_PRACTICE_LEARN	n/a	n/a	wheel	-1	-1	-1	-3.764219999999999	-1.1987	9.57624	12.3302	8.87688	11.621	n/a	n/a	n/a	3.25666	5.921369999999999	315.401885986	2.668	1	YC1	R1062J
14.802	0.017	329852	TRAVEL_PRACTICE_LEARN	n/a	n/a	wheel	-1	-1	-1	-3.764219999999999	-1.1987	9.57624	12.3302	8.87688	11.621	n/a	n/a	n/a	3.325699999999999	5.99139	315.401885986	2.684	1	YC1	R1062J
14.819	0.016	329869	TRAVEL_PRACTICE_LEARN	n/a	n/a	wheel	-1	-1	-1	-3.764219999999999	-1.1987	9.57624	12.3302	8.87688	11.621	n/a	n/a	n/a	3.39861	6.065319999999999	315.401885986	2.701	1	YC1	R1062J
14.835	0.017	329885	TRAVEL_PRACTICE_LEARN	n/a	n/a	wheel	-1	-1	-1	-3.764219999999999	-1.1987	9.57624	12.3302	8.87688	11.621	n/a	n/a	n/a	3.46593	6.1336	315.401885986	2.717	1	YC1	R1062J
14.852	0.017	329902	TRAVEL_PRACTICE_LEARN	n/a	n/a	wheel	-1	-1	-1	-3.764219999999999	-1.1987	9.57624	12.3302	8.87688	11.621	n/a	n/a	n/a	3.53653	6.20519	315.401885986	2.734	1	YC1	R1062J
14.869	0.017	329919	TRAVEL_PRACTICE_LEARN	n/a	n/a	wheel	-1	-1	-1	-3.764219999999999	-1.1987	9.57624	12.3302	8.87688	11.621	n/a	n/a	n/a	3.606959999999999	6.27662	315.401885986	2.751	1	YC1	R1062J
14.886	0.015	329936	TRAVEL_PRACTICE_LEARN	n/a	n/a	wheel	-1	-1	-1	-3.764219999999999	-1.1987	9.57624	12.3302	8.87688	11.621	n/a	n/a	n/a	3.6766	6.34724	315.401885986	2.768	1	YC1	R1062J
14.901	0.018	329951	TRAVEL_PRACTICE_LEARN	n/a	n/a	wheel	-1	-1	-1	-3.764219999999999	-1.1987	9.57624	12.3302	8.87688	11.621	n/a	n/a	n/a	3.7482	6.41985	315.401885986	2.783	1	YC1	R1062J
14.919	0.016	329969	TRAVEL_PRACTICE_LEARN	n/a	n/a	wheel	-1	-1	-1	-3.764219999999999	-1.1987	9.57624	12.3302	8.87688	11.621	n/a	n/a	n/a	3.81915	6.491799999999999	315.401885986	2.801	1	YC1	R1062J
14.935	0.016	329985	TRAVEL_PRACTICE_LEARN	n/a	n/a	wheel	-1	-1	-1	-3.764219999999999	-1.1987	9.57624	12.3302	8.87688	11.621	n/a	n/a	n/a	3.88567	6.55926	315.401885986	2.817	1	YC1	R1062J
14.951	0.018	330001	TRAVEL_PRACTICE_LEARN	n/a	n/a	wheel	-1	-1	-1	-3.764219999999999	-1.1987	9.57624	12.3302	8.87688	11.621	n/a	n/a	n/a	3.95846	6.633079999999999	315.401885986	2.833	1	YC1	R1062J
14.969	0.017	330019	TRAVEL_PRACTICE_LEARN	n/a	n/a	wheel	-1	-1	-1	-3.764219999999999	-1.1987	9.57624	12.3302	8.87688	11.621	n/a	n/a	n/a	4.026309999999999	6.701889999999999	315.401885986	2.851	1	YC1	R1062J
14.986	0.016	330036	TRAVEL_PRACTICE_LEARN	n/a	n/a	wheel	-1	-1	-1	-3.764219999999999	-1.1987	9.57624	12.3302	8.87688	11.621	n/a	n/a	n/a	4.096309999999999	6.772879999999999	315.401885986	2.868	1	YC1	R1062J
15.002	0.017	330052	TRAVEL_PRACTICE_LEARN	n/a	n/a	wheel	-1	-1	-1	-3.764219999999999	-1.1987	9.57624	12.3302	8.87688	11.621	n/a	n/a	n/a	4.16992	6.847529999999999	315.401885986	2.884	1	YC1	R1062J
15.019	0.017	330069	TRAVEL_PRACTICE_LEARN	n/a	n/a	wheel	-1	-1	-1	-3.764219999999999	-1.1987	9.57624	12.3302	8.87688	11.621	n/a	n/a	n/a	4.240409999999999	6.91901	315.401885986	2.901	1	YC1	R1062J
15.036	0.016	330086	TRAVEL_PRACTICE_LEARN	n/a	n/a	wheel	-1	-1	-1	-3.764219999999999	-1.1987	9.57624	12.3302	8.87688	11.621	n/a	n/a	n/a	4.3085	6.988069999999999	315.401885986	2.918	1	YC1	R1062J
15.052	0.016	330102	TRAVEL_PRACTICE_LEARN	n/a	n/a	wheel	-1	-1	-1	-3.764219999999999	-1.1987	9.57624	12.3302	8.87688	11.621	n/a	n/a	n/a	4.380259999999999	7.060839999999999	315.401885986	2.934	1	YC1	R1062J
15.068	0.017	330118	TRAVEL_PRACTICE_LEARN	n/a	n/a	wheel	-1	-1	-1	-3.764219999999999	-1.1987	9.57624	12.3302	8.87688	11.621	n/a	n/a	n/a	4.45119	7.13278	315.401885986	2.95	1	YC1	R1062J
15.085	0.017	330135	TRAVEL_PRACTICE_LEARN	n/a	n/a	wheel	-1	-1	-1	-3.764219999999999	-1.1987	9.57624	12.3302	8.87688	11.621	n/a	n/a	n/a	4.52069	7.203249999999999	315.401885986	2.967	1	YC1	R1062J
15.102	0.017	330152	TRAVEL_PRACTICE_LEARN	n/a	n/a	wheel	-1	-1	-1	-3.764219999999999	-1.1987	9.57624	12.3302	8.87688	11.621	n/a	n/a	n/a	4.58882	7.272339999999999	315.401885986	2.984	1	YC1	R1062J
15.119	0.016	330169	TRAVEL_PRACTICE_LEARN	n/a	n/a	wheel	-1	-1	-1	-3.764219999999999	-1.1987	9.57624	12.3302	8.87688	11.621	n/a	n/a	n/a	4.65869	7.34321	315.401885986	3.001	1	YC1	R1062J
15.135	0.017	330185	TRAVEL_PRACTICE_LEARN	n/a	n/a	wheel	-1	-1	-1	-3.764219999999999	-1.1987	9.57624	12.3302	8.87688	11.621	n/a	n/a	n/a	4.728419999999999	7.41392	315.401885986	3.017	1	YC1	R1062J
15.152	0.016	330202	TRAVEL_PRACTICE_LEARN	n/a	n/a	wheel	-1	-1	-1	-3.764219999999999	-1.1987	9.57624	12.3302	8.87688	11.621	n/a	n/a	n/a	4.802579999999999	7.48913	315.401885986	3.034	1	YC1	R1062J
15.168	0.017	330218	TRAVEL_PRACTICE_LEARN	n/a	n/a	wheel	-1	-1	-1	-3.764219999999999	-1.1987	9.57624	12.3302	8.87688	11.621	n/a	n/a	n/a	4.86869	7.556169999999999	315.401885986	3.05	1	YC1	R1062J
15.185	0.017	330235	TRAVEL_PRACTICE_LEARN	n/a	n/a	wheel	-1	-1	-1	-3.764219999999999	-1.1987	9.57624	12.3302	8.87688	11.621	n/a	n/a	n/a	4.94214	7.630659999999999	315.401885986	3.067	1	YC1	R1062J
15.202	0.017	330252	TRAVEL_PRACTICE_LEARN	n/a	n/a	wheel	-1	-1	-1	-3.764219999999999	-1.1987	9.57624	12.3302	8.87688	11.621	n/a	n/a	n/a	5.009789999999999	7.69927	315.401885986	3.084	1	YC1	R1062J
15.219	0.017	330269	TRAVEL_PRACTICE_LEARN	n/a	n/a	wheel	-1	-1	-1	-3.764219999999999	-1.1987	9.57624	12.3302	8.87688	11.621	n/a	n/a	n/a	5.0799	7.770369999999999	315.401885986	3.101	1	YC1	R1062J
15.236	0.016	330286	TRAVEL_PRACTICE_LEARN	n/a	n/a	wheel	-1	-1	-1	-3.764219999999999	-1.1987	9.57624	12.3302	8.87688	11.621	n/a	n/a	n/a	5.15268	7.84417	315.401885986	3.118	1	YC1	R1062J
15.252	0.017	330302	TRAVEL_PRACTICE_LEARN	n/a	n/a	wheel	-1	-1	-1	-3.764219999999999	-1.1987	9.57624	12.3302	8.87688	11.621	n/a	n/a	n/a	5.2232	7.915689999999999	315.401885986	3.134	1	YC1	R1062J
15.269	0.017	330319	TRAVEL_PRACTICE_LEARN	n/a	n/a	wheel	-1	-1	-1	-3.764219999999999	-1.1987	9.57624	12.3302	8.87688	11.621	n/a	n/a	n/a	5.292939999999999	7.986419999999999	315.401885986	3.151	1	YC1	R1062J
15.286	0.016	330336	TRAVEL_PRACTICE_LEARN	n/a	n/a	wheel	-1	-1	-1	-3.764219999999999	-1.1987	9.57624	12.3302	8.87688	11.621	n/a	n/a	n/a	5.36275	8.05721	315.401885986	3.168	1	YC1	R1062J
15.302	0.017	330352	TRAVEL_PRACTICE_LEARN	n/a	n/a	wheel	-1	-1	-1	-3.764219999999999	-1.1987	9.57624	12.3302	8.87688	11.621	n/a	n/a	n/a	5.434199999999999	8.12967	315.401885986	3.184	1	YC1	R1062J
15.319	0.016	330369	TRAVEL_PRACTICE_LEARN	n/a	n/a	wheel	-1	-1	-1	-3.764219999999999	-1.1987	9.57624	12.3302	8.87688	11.621	n/a	n/a	n/a	5.50365	8.20011	315.401885986	3.201	1	YC1	R1062J
15.335	0.017	330385	TRAVEL_PRACTICE_LEARN	n/a	n/a	wheel	-1	-1	-1	-3.764219999999999	-1.1987	9.57624	12.3302	8.87688	11.621	n/a	n/a	n/a	5.57411	8.27156	315.401885986	3.217	1	YC1	R1062J
15.352	0.017	330402	TRAVEL_PRACTICE_LEARN	n/a	n/a	wheel	-1	-1	-1	-3.764219999999999	-1.1987	9.57624	12.3302	8.87688	11.621	n/a	n/a	n/a	5.64252	8.34094	315.401885986	3.234	1	YC1	R1062J
15.369	0.017	330419	TRAVEL_PRACTICE_LEARN	n/a	n/a	wheel	-1	-1	-1	-3.764219999999999	-1.1987	9.57624	12.3302	8.87688	11.621	n/a	n/a	n/a	5.71201	8.41141	315.401885986	3.251	1	YC1	R1062J
15.386	0.016	330436	TRAVEL_PRACTICE_LEARN	n/a	n/a	wheel	-1	-1	-1	-3.764219999999999	-1.1987	9.57624	12.3302	8.87688	11.621	n/a	n/a	n/a	5.782569999999999	8.482969999999998	315.401885986	3.268	1	YC1	R1062J
15.402	0.017	330452	TRAVEL_PRACTICE_LEARN	n/a	n/a	wheel	-1	-1	-1	-3.764219999999999	-1.1987	9.57624	12.3302	8.87688	11.621	n/a	n/a	n/a	5.85533	8.55675	315.401885986	3.284	1	YC1	R1062J
15.419	0.017	330469	TRAVEL_PRACTICE_LEARN	n/a	n/a	wheel	-1	-1	-1	-3.764219999999999	-1.1987	9.57624	12.3302	8.87688	11.621	n/a	n/a	n/a	5.925399999999999	8.62781	315.401885986	3.301	1	YC1	R1062J
15.436	0.017	330486	TRAVEL_PRACTICE_LEARN	n/a	n/a	wheel	-1	-1	-1	-3.764219999999999	-1.1987	9.57624	12.3302	8.87688	11.621	n/a	n/a	n/a	5.99593	8.69934	315.401885986	3.318	1	YC1	R1062J
15.453	0.015	330503	TRAVEL_PRACTICE_LEARN	n/a	n/a	wheel	-1	-1	-1	-3.764219999999999	-1.1987	9.57624	12.3302	8.87688	11.621	n/a	n/a	n/a	6.066029999999999	8.77043	315.401885986	3.335	1	YC1	R1062J
15.468	0.018	330518	TRAVEL_PRACTICE_LEARN	n/a	n/a	wheel	-1	-1	-1	-3.764219999999999	-1.1987	9.57624	12.3302	8.87688	11.621	n/a	n/a	n/a	6.136809999999999	8.8422	315.401885986	3.35	1	YC1	R1062J
15.486	0.017	330536	TRAVEL_PRACTICE_LEARN	n/a	n/a	wheel	-1	-1	-1	-3.764219999999999	-1.1987	9.57624	12.3302	8.87688	11.621	n/a	n/a	n/a	6.20809	8.91449	315.401885986	3.368	1	YC1	R1062J
15.503	0.016	330553	TRAVEL_PRACTICE_LEARN	n/a	n/a	wheel	-1	-1	-1	-3.764219999999999	-1.1987	9.57624	12.3302	8.87688	11.621	n/a	n/a	n/a	6.27296	8.98028	315.401885986	3.385	1	YC1	R1062J
15.519	0.017	330569	TRAVEL_PRACTICE_LEARN	n/a	n/a	wheel	-1	-1	-1	-3.764219999999999	-1.1987	9.57624	12.3302	8.87688	11.621	n/a	n/a	n/a	6.34795	9.05634	315.401885986	3.401	1	YC1	R1062J
15.536	0.016	330586	TRAVEL_PRACTICE_LEARN	n/a	n/a	wheel	-1	-1	-1	-3.764219999999999	-1.1987	9.57624	12.3302	8.87688	11.621	n/a	n/a	n/a	6.41772	9.12709	315.401885986	3.418	1	YC1	R1062J
15.552	0.017	330602	TRAVEL_PRACTICE_LEARN	n/a	n/a	wheel	-1	-1	-1	-3.764219999999999	-1.1987	9.57624	12.3302	8.87688	11.621	n/a	n/a	n/a	6.488159999999999	9.19853	315.401885986	3.434	1	YC1	R1062J
15.569	0.016	330619	TRAVEL_PRACTICE_LEARN	n/a	n/a	wheel	-1	-1	-1	-3.764219999999999	-1.1987	9.57624	12.3302	8.87688	11.621	n/a	n/a	n/a	6.55794	9.26929	315.401885986	3.451	1	YC1	R1062J
15.585	0.017	330635	TRAVEL_PRACTICE_LEARN	n/a	n/a	wheel	-1	-1	-1	-3.764219999999999	-1.1987	9.57624	12.3302	8.87688	11.621	n/a	n/a	n/a	6.62802	9.34035	315.401885986	3.467	1	YC1	R1062J
15.602	0.016	330652	TRAVEL_PRACTICE_LEARN	n/a	n/a	wheel	-1	-1	-1	-3.764219999999999	-1.1987	9.57624	12.3302	8.87688	11.621	n/a	n/a	n/a	6.697079999999999	9.41039	315.401885986	3.484	1	YC1	R1062J
15.618	0.017	330668	TRAVEL_PRACTICE_LEARN	n/a	n/a	wheel	-1	-1	-1	-3.764219999999999	-1.1987	9.57624	12.3302	8.87688	11.621	n/a	n/a	n/a	6.767129999999999	9.48144	315.401885986	3.5	1	YC1	R1062J
15.635	0.017	330685	TRAVEL_PRACTICE_LEARN	n/a	n/a	wheel	-1	-1	-1	-3.764219999999999	-1.1987	9.57624	12.3302	8.87688	11.621	n/a	n/a	n/a	6.836409999999999	9.55169	315.401885986	3.517	1	YC1	R1062J
15.652	0.017	330702	TRAVEL_PRACTICE_LEARN	n/a	n/a	wheel	-1	-1	-1	-3.764219999999999	-1.1987	9.57624	12.3302	8.87688	11.621	n/a	n/a	n/a	6.906049999999999	9.62231	315.401885986	3.534	1	YC1	R1062J
15.669	0.017	330719	TRAVEL_PRACTICE_LEARN	n/a	n/a	wheel	-1	-1	-1	-3.764219999999999	-1.1987	9.57624	12.3302	8.87688	11.621	n/a	n/a	n/a	6.977009999999999	9.69428	315.401885986	3.551	1	YC1	R1062J
15.686	0.016	330736	TRAVEL_PRACTICE_LEARN	n/a	n/a	wheel	-1	-1	-1	-3.764219999999999	-1.1987	9.57624	12.3302	8.87688	11.621	n/a	n/a	n/a	7.04731	9.76557	315.401885986	3.568	1	YC1	R1062J
15.702	0.016	330752	TRAVEL_PRACTICE_LEARN	n/a	n/a	wheel	-1	-1	-1	-3.764219999999999	-1.1987	9.57624	12.3302	8.87688	11.621	n/a	n/a	n/a	7.119089999999999	9.83837	315.401885986	3.584	1	YC1	R1062J
15.718	0.017	330768	TRAVEL_PRACTICE_LEARN	n/a	n/a	wheel	-1	-1	-1	-3.764219999999999	-1.1987	9.57624	12.3302	8.87688	11.621	n/a	n/a	n/a	7.188819999999999	9.90908	315.401885986	3.6	1	YC1	R1062J
15.735	0.017	330785	TRAVEL_PRACTICE_LEARN	n/a	n/a	wheel	-1	-1	-1	-3.764219999999999	-1.1987	9.57624	12.3302	8.87688	11.621	n/a	n/a	n/a	7.25797	9.97921	315.401885986	3.617	1	YC1	R1062J
15.752	0.017	330802	TRAVEL_PRACTICE_LEARN	n/a	n/a	wheel	-1	-1	-1	-3.764219999999999	-1.1987	9.57624	12.3302	8.87688	11.621	n/a	n/a	n/a	7.32756	10.0498	315.401885986	3.634	1	YC1	R1062J
15.769	0.017	330819	TRAVEL_PRACTICE_LEARN	n/a	n/a	wheel	-1	-1	-1	-3.764219999999999	-1.1987	9.57624	12.3302	8.87688	11.621	n/a	n/a	n/a	7.3971	10.1203	315.401885986	3.651	1	YC1	R1062J
15.786	0.016	330836	TRAVEL_PRACTICE_LEARN	n/a	n/a	wheel	-1	-1	-1	-3.764219999999999	-1.1987	9.57624	12.3302	8.87688	11.621	n/a	n/a	n/a	7.46731	10.1915	315.401885986	3.668	1	YC1	R1062J
15.802	0.017	330852	TRAVEL_PRACTICE_LEARN	n/a	n/a	wheel	-1	-1	-1	-3.764219999999999	-1.1987	9.57624	12.3302	8.87688	11.621	n/a	n/a	n/a	7.5407399999999996	10.266	315.401885986	3.684	1	YC1	R1062J
15.819	0.017	330869	TRAVEL_PRACTICE_LEARN	n/a	n/a	wheel	-1	-1	-1	-3.764219999999999	-1.1987	9.57624	12.3302	8.87688	11.621	n/a	n/a	n/a	7.610299999999999	10.3365	315.401885986	3.701	1	YC1	R1062J
15.836	0.017	330886	TRAVEL_PRACTICE_LEARN	n/a	n/a	wheel	-1	-1	-1	-3.764219999999999	-1.1987	9.57624	12.3302	8.87688	11.621	n/a	n/a	n/a	7.67954	10.4067	315.401885986	3.718	1	YC1	R1062J
15.853	0.016	330903	TRAVEL_PRACTICE_LEARN	n/a	n/a	wheel	-1	-1	-1	-3.764219999999999	-1.1987	9.57624	12.3302	8.87688	11.621	n/a	n/a	n/a	7.74936	10.4775	315.401885986	3.735	1	YC1	R1062J
15.869	0.017	330919	TRAVEL_PRACTICE_LEARN	n/a	n/a	wheel	-1	-1	-1	-3.764219999999999	-1.1987	9.57624	12.3302	8.87688	11.621	n/a	n/a	n/a	7.822429999999999	10.5516	315.401885986	3.751	1	YC1	R1062J
15.886	0.016	330936	TRAVEL_PRACTICE_LEARN	n/a	n/a	wheel	-1	-1	-1	-3.764219999999999	-1.1987	9.57624	12.3302	8.87688	11.621	n/a	n/a	n/a	7.892489999999999	10.6227	315.401885986	3.768	1	YC1	R1062J
15.902	0.017	330952	TRAVEL_PRACTICE_LEARN	n/a	n/a	wheel	-1	-1	-1	-3.764219999999999	-1.1987	9.57624	12.3302	8.87688	11.621	n/a	n/a	n/a	7.961649999999999	10.6928	315.401885986	3.784	1	YC1	R1062J
15.919	0.016	330969	TRAVEL_PRACTICE_LEARN	n/a	n/a	wheel	-1	-1	-1	-3.764219999999999	-1.1987	9.57624	12.3302	8.87688	11.621	n/a	n/a	n/a	8.03154	10.7637	315.401885986	3.801	1	YC1	R1062J
15.935	0.017	330985	TRAVEL_PRACTICE_LEARN	n/a	n/a	wheel	-1	-1	-1	-3.764219999999999	-1.1987	9.57624	12.3302	8.87688	11.621	n/a	n/a	n/a	8.10033	10.8335	315.401885986	3.817	1	YC1	R1062J
15.952	0.016	331002	TRAVEL_PRACTICE_LEARN	n/a	n/a	wheel	-1	-1	-1	-3.764219999999999	-1.1987	9.57624	12.3302	8.87688	11.621	n/a	n/a	n/a	8.17231	10.9065	315.401885986	3.834	1	YC1	R1062J
15.968	0.018	331018	TRAVEL_PRACTICE_LEARN	n/a	n/a	wheel	-1	-1	-1	-3.764219999999999	-1.1987	9.57624	12.3302	8.87688	11.621	n/a	n/a	n/a	8.24129	10.9764	315.401885986	3.85	1	YC1	R1062J
15.986	0.016	331036	TRAVEL_PRACTICE_LEARN	n/a	n/a	wheel	-1	-1	-1	-3.764219999999999	-1.1987	9.57624	12.3302	8.87688	11.621	n/a	n/a	n/a	8.31117	11.0473	315.401885986	3.868	1	YC1	R1062J
16.002	0.016	331052	TRAVEL_PRACTICE_LEARN	n/a	n/a	wheel	-1	-1	-1	-3.764219999999999	-1.1987	9.57624	12.3302	8.87688	11.621	n/a	n/a	n/a	8.3804	11.1175	315.401885986	3.884	1	YC1	R1062J
16.018	0.018	331068	TRAVEL_PRACTICE_LEARN	n/a	n/a	wheel	-1	-1	-1	-3.764219999999999	-1.1987	9.57624	12.3302	8.87688	11.621	n/a	n/a	n/a	8.45402	11.1922	315.401885986	3.9	1	YC1	R1062J
16.036	0.016	331086	TRAVEL_PRACTICE_LEARN	n/a	n/a	wheel	-1	-1	-1	-3.764219999999999	-1.1987	9.57624	12.3302	8.87688	11.621	n/a	n/a	n/a	8.52242	11.2615	315.401885986	3.918	1	YC1	R1062J
16.052	0.017	331102	TRAVEL_PRACTICE_LEARN	n/a	n/a	wheel	-1	-1	-1	-3.764219999999999	-1.1987	9.57624	12.3302	8.87688	11.621	n/a	n/a	n/a	8.59133	11.3314	315.401885986	3.934	1	YC1	R1062J
16.069	0.017	331119	TRAVEL_PRACTICE_LEARN	n/a	n/a	wheel	-1	-1	-1	-3.764219999999999	-1.1987	9.57624	12.3302	8.87688	11.621	n/a	n/a	n/a	8.66387	11.405	315.401885986	3.951	1	YC1	R1062J
16.086	0.016	331136	TRAVEL_PRACTICE_LEARN	n/a	n/a	wheel	-1	-1	-1	-3.764219999999999	-1.1987	9.57624	12.3302	8.87688	11.621	n/a	n/a	n/a	8.73221	11.4743	315.401885986	3.968	1	YC1	R1062J
16.102	0.017	331152	TRAVEL_PRACTICE_LEARN	n/a	n/a	wheel	-1	-1	-1	-3.764219999999999	-1.1987	9.57624	12.3302	8.87688	11.621	n/a	n/a	n/a	8.80519	11.5483	315.401885986	3.984	1	YC1	R1062J
16.119	7.334	331169	TRAVEL_PRACTICE_LEARN	n/a	n/a	wheel	-1	-1	-1	-3.764219999999999	-1.1987	9.57624	12.3302	8.87688	11.621	n/a	n/a	n/a	8.87688	11.621	315.401885986	4.001	1	YC1	R1062J
23.453	6.085	338503	NAV_PRACTICE_TEST	21.876	n/a	wheel	-1	-1	-1	-28.3757	4.5284	9.57624	12.3302	-17.5865	12.5088	6.085	21.876	15.885748046592802	-28.3757	4.5284	65.3885345459	n/a	1	YC1	R1062J
29.538	0.017	344588	TRAVEL_PRACTICE_TEST	n/a	n/a	wheel	-1	-1	-1	-28.3757	4.5284	9.57624	12.3302	-17.5865	12.5088	n/a	n/a	n/a	-28.3757	4.5284	65.3885345459	0.0	1	YC1	R1062J
29.555	0.015	344605	TRAVEL_PRACTICE_TEST	n/a	n/a	wheel	-1	-1	-1	-28.3757	4.5284	9.57624	12.3302	-17.5865	12.5088	n/a	n/a	n/a	-28.3757	4.528389999999999	65.3887481689	0.017	1	YC1	R1062J
29.57	0.018	344620	TRAVEL_PRACTICE_TEST	n/a	n/a	wheel	-1	-1	-1	-28.3757	4.5284	9.57624	12.3302	-17.5865	12.5088	n/a	n/a	n/a	-28.3757	4.528389999999999	65.3892364502	0.032	1	YC1	R1062J
29.588	0.016	344638	TRAVEL_PRACTICE_TEST	n/a	n/a	wheel	-1	-1	-1	-28.3757	4.5284	9.57624	12.3302	-17.5865	12.5088	n/a	n/a	n/a	-28.3757	4.528369999999999	65.3903503418	0.05	1	YC1	R1062J
29.604	0.017	344654	TRAVEL_PRACTICE_TEST	n/a	n/a	wheel	-1	-1	-1	-28.3757	4.5284	9.57624	12.3302	-17.5865	12.5088	n/a	n/a	n/a	-28.3757	4.528349999999999	65.392326355	0.066	1	YC1	R1062J
29.621	0.017	344671	TRAVEL_PRACTICE_TEST	n/a	n/a	wheel	-1	-1	-1	-28.3757	4.5284	9.57624	12.3302	-17.5865	12.5088	n/a	n/a	n/a	-28.3754	4.52815	65.3960952759	0.083	1	YC1	R1062J
29.638	0.017	344688	TRAVEL_PRACTICE_TEST	n/a	n/a	wheel	-1	-1	-1	-28.3757	4.5284	9.57624	12.3302	-17.5865	12.5088	n/a	n/a	n/a	-28.375	4.52787	65.4014434814	0.1	1	YC1	R1062J
29.655	0.015	344705	TRAVEL_PRACTICE_TEST	n/a	n/a	wheel	-1	-1	-1	-28.3757	4.5284	9.57624	12.3302	-17.5865	12.5088	n/a	n/a	n/a	-28.3744	4.52749	65.4097213745	0.117	1	YC1	R1062J
29.67	0.018	344720	TRAVEL_PRACTICE_TEST	n/a	n/a	wheel	-1	-1	-1	-28.3757	4.5284	9.57624	12.3302	-17.5865	12.5088	n/a	n/a	n/a	-28.375	4.527599999999999	65.420791626	0.132	1	YC1	R1062J
29.688	0.016	344738	TRAVEL_PRACTICE_TEST	n/a	n/a	wheel	-1	-1	-1	-28.3757	4.5284	9.57624	12.3302	-17.5865	12.5088	n/a	n/a	n/a	-28.3754	4.52765	65.4355545044	0.15	1	YC1	R1062J
29.704	0.017	344754	TRAVEL_PRACTICE_TEST	n/a	n/a	wheel	-1	-1	-1	-28.3757	4.5284	9.57624	12.3302	-17.5865	12.5088	n/a	n/a	n/a	-28.3759	4.527639999999999	65.4530792236	0.166	1	YC1	R1062J
29.721	0.017	344771	TRAVEL_PRACTICE_TEST	n/a	n/a	wheel	-1	-1	-1	-28.3757	4.5284	9.57624	12.3302	-17.5865	12.5088	n/a	n/a	n/a	-28.3763	4.52761	65.4769058228	0.183	1	YC1	R1062J
29.738	0.018	344788	TRAVEL_PRACTICE_TEST	n/a	n/a	wheel	-1	-1	-1	-28.3757	4.5284	9.57624	12.3302	-17.5865	12.5088	n/a	n/a	n/a	-28.3767	4.527549999999999	65.503364563	0.2	1	YC1	R1062J
29.756	0.014	344806	TRAVEL_PRACTICE_TEST	n/a	n/a	wheel	-1	-1	-1	-28.3757	4.5284	9.57624	12.3302	-17.5865	12.5088	n/a	n/a	n/a	-28.3772	4.527529999999999	65.5359268188	0.218	1	YC1	R1062J
29.77	0.018	344820	TRAVEL_PRACTICE_TEST	n/a	n/a	wheel	-1	-1	-1	-28.3757	4.5284	9.57624	12.3302	-17.5865	12.5088	n/a	n/a	n/a	-28.3779	4.52756	65.5741882324	0.232	1	YC1	R1062J
29.788	0.016	344838	TRAVEL_PRACTICE_TEST	n/a	n/a	wheel	-1	-1	-1	-28.3757	4.5284	9.57624	12.3302	-17.5865	12.5088	n/a	n/a	n/a	-28.3791	4.52775	65.6233139038	0.25	1	YC1	R1062J
29.804	0.017	344854	TRAVEL_PRACTICE_TEST	n/a	n/a	wheel	-1	-1	-1	-28.3757	4.5284	9.57624	12.3302	-17.5865	12.5088	n/a	n/a	n/a	-28.3802	4.52789	65.6662063599	0.266	1	YC1	R1062J
29.821	0.017	344871	TRAVEL_PRACTICE_TEST	n/a	n/a	wheel	-1	-1	-1	-28.3757	4.5284	9.57624	12.3302	-17.5865	12.5088	n/a	n/a	n/a	-28.382	4.528389999999999	65.7261581421	0.283	1	YC1	R1062J
29.838	0.016	344888	TRAVEL_PRACTICE_TEST	n/a	n/a	wheel	-1	-1	-1	-28.3757	4.5284	9.57624	12.3302	-17.5865	12.5088	n/a	n/a	n/a	-28.3842	4.52894	65.7880096436	0.3	1	YC1	R1062J
29.854	0.017	344904	TRAVEL_PRACTICE_TEST	n/a	n/a	wheel	-1	-1	-1	-28.3757	4.5284	9.57624	12.3302	-17.5865	12.5088	n/a	n/a	n/a	-28.3871	4.52984	65.8614273071	0.316	1	YC1	R1062J
29.871	0.017	344921	TRAVEL_PRACTICE_TEST	n/a	n/a	wheel	-1	-1	-1	-28.3757	4.5284	9.57624	12.3302	-17.5865	12.5088	n/a	n/a	n/a	-28.3908	4.53104	65.943687439	0.333	1	YC1	R1062J
29.888	0.017	344938	TRAVEL_PRACTICE_TEST	n/a	n/a	wheel	-1	-1	-1	-28.3757	4.5284	9.57624	12.3302	-17.5865	12.5088	n/a	n/a	n/a	-28.3948	4.532379999999999	66.0268554688	0.35	1	YC1	R1062J
29.905	0.016	344955	TRAVEL_PRACTICE_TEST	n/a	n/a	wheel	-1	-1	-1	-28.3757	4.5284	9.57624	12.3302	-17.5865	12.5088	n/a	n/a	n/a	-28.3998	4.53416	66.1228637695	0.367	1	YC1	R1062J
29.921	0.017	344971	TRAVEL_PRACTICE_TEST	n/a	n/a	wheel	-1	-1	-1	-28.3757	4.5284	9.57624	12.3302	-17.5865	12.5088	n/a	n/a	n/a	-28.4056	4.53627	66.2282409668	0.383	1	YC1	R1062J
29.938	0.016	344988	TRAVEL_PRACTICE_TEST	n/a	n/a	wheel	-1	-1	-1	-28.3757	4.5284	9.57624	12.3302	-17.5865	12.5088	n/a	n/a	n/a	-28.412	4.538619999999999	66.3397445679	0.4	1	YC1	R1062J
29.954	0.017	345004	TRAVEL_PRACTICE_TEST	n/a	n/a	wheel	-1	-1	-1	-28.3757	4.5284	9.57624	12.3302	-17.5865	12.5088	n/a	n/a	n/a	-28.419	4.541229999999999	66.4567871094	0.416	1	YC1	R1062J
29.971	0.017	345021	TRAVEL_PRACTICE_TEST	n/a	n/a	wheel	-1	-1	-1	-28.3757	4.5284	9.57624	12.3302	-17.5865	12.5088	n/a	n/a	n/a	-28.4269	4.54422	66.5852355957	0.433	1	YC1	R1062J
29.988	0.017	345038	TRAVEL_PRACTICE_TEST	n/a	n/a	wheel	-1	-1	-1	-28.3757	4.5284	9.57624	12.3302	-17.5865	12.5088	n/a	n/a	n/a	-28.4354	4.54741	66.7182769775	0.45	1	YC1	R1062J
30.005	0.016	345055	TRAVEL_PRACTICE_TEST	n/a	n/a	wheel	-1	-1	-1	-28.3757	4.5284	9.57624	12.3302	-17.5865	12.5088	n/a	n/a	n/a	-28.4447	4.55097	66.8617095947	0.467	1	YC1	R1062J
30.021	0.016	345071	TRAVEL_PRACTICE_TEST	n/a	n/a	wheel	-1	-1	-1	-28.3757	4.5284	9.57624	12.3302	-17.5865	12.5088	n/a	n/a	n/a	-28.4547	4.55477	67.0107879639	0.483	1	YC1	R1062J
30.037	0.017	345087	TRAVEL_PRACTICE_TEST	n/a	n/a	wheel	-1	-1	-1	-28.3757	4.5284	9.57624	12.3302	-17.5865	12.5088	n/a	n/a	n/a	-28.4653	4.558849999999999	67.1653823853	0.499	1	YC1	R1062J
30.054	0.017	345104	TRAVEL_PRACTICE_TEST	n/a	n/a	wheel	-1	-1	-1	-28.3757	4.5284	9.57624	12.3302	-17.5865	12.5088	n/a	n/a	n/a	-28.4758	4.562909999999999	67.3163757324	0.516	1	YC1	R1062J
30.071	0.016	345121	TRAVEL_PRACTICE_TEST	n/a	n/a	wheel	-1	-1	-1	-28.3757	4.5284	9.57624	12.3302	-17.5865	12.5088	n/a	n/a	n/a	-28.4873	4.567389999999999	67.4796981812	0.533	1	YC1	R1062J
30.087	0.018	345137	TRAVEL_PRACTICE_TEST	n/a	n/a	wheel	-1	-1	-1	-28.3757	4.5284	9.57624	12.3302	-17.5865	12.5088	n/a	n/a	n/a	-28.4993	4.57209	67.6498260498	0.549	1	YC1	R1062J
30.105	0.016	345155	TRAVEL_PRACTICE_TEST	n/a	n/a	wheel	-1	-1	-1	-28.3757	4.5284	9.57624	12.3302	-17.5865	12.5088	n/a	n/a	n/a	-28.5116	4.5768699999999995	67.8213119507	0.567	1	YC1	R1062J
30.121	0.017	345171	TRAVEL_PRACTICE_TEST	n/a	n/a	wheel	-1	-1	-1	-28.3757	4.5284	9.57624	12.3302	-17.5865	12.5088	n/a	n/a	n/a	-28.5241	4.581699999999999	67.9936752319	0.583	1	YC1	R1062J
30.138	0.016	345188	TRAVEL_PRACTICE_TEST	n/a	n/a	wheel	-1	-1	-1	-28.3757	4.5284	9.57624	12.3302	-17.5865	12.5088	n/a	n/a	n/a	-28.538	4.58706	68.182510376	0.6	1	YC1	R1062J
30.154	0.017	345204	TRAVEL_PRACTICE_TEST	n/a	n/a	wheel	-1	-1	-1	-28.3757	4.5284	9.57624	12.3302	-17.5865	12.5088	n/a	n/a	n/a	-28.5512	4.59212	68.3596725464	0.616	1	YC1	R1062J
30.171	0.017	345221	TRAVEL_PRACTICE_TEST	n/a	n/a	wheel	-1	-1	-1	-28.3757	4.5284	9.57624	12.3302	-17.5865	12.5088	n/a	n/a	n/a	-28.5652	4.597459999999999	68.5430297852	0.633	1	YC1	R1062J
30.188	0.016	345238	TRAVEL_PRACTICE_TEST	n/a	n/a	wheel	-1	-1	-1	-28.3757	4.5284	9.57624	12.3302	-17.5865	12.5088	n/a	n/a	n/a	-28.5796	4.602949999999999	68.7280044556	0.65	1	YC1	R1062J
30.204	0.017	345254	TRAVEL_PRACTICE_TEST	n/a	n/a	wheel	-1	-1	-1	-28.3757	4.5284	9.57624	12.3302	-17.5865	12.5088	n/a	n/a	n/a	-28.5939	4.60841	68.9074630737	0.666	1	YC1	R1062J
30.221	0.017	345271	TRAVEL_PRACTICE_TEST	n/a	n/a	wheel	-1	-1	-1	-28.3757	4.5284	9.57624	12.3302	-17.5865	12.5088	n/a	n/a	n/a	-28.6096	4.614399999999999	69.099357605	0.683	1	YC1	R1062J
30.238	0.017	345288	TRAVEL_PRACTICE_TEST	n/a	n/a	wheel	-1	-1	-1	-28.3757	4.5284	9.57624	12.3302	-17.5865	12.5088	n/a	n/a	n/a	-28.6249	4.62018	69.2801742554	0.7	1	YC1	R1062J
30.255	0.016	345305	TRAVEL_PRACTICE_TEST	n/a	n/a	wheel	-1	-1	-1	-28.3757	4.5284	9.57624	12.3302	-17.5865	12.5088	n/a	n/a	n/a	-28.6407	4.62614	69.4625244141	0.717	1	YC1	R1062J
30.271	0.016	345321	TRAVEL_PRACTICE_TEST	n/a	n/a	wheel	-1	-1	-1	-28.3757	4.5284	9.57624	12.3302	-17.5865	12.5088	n/a	n/a	n/a	-28.6569	4.63218	69.64427948	0.733	1	YC1	R1062J
30.287	0.017	345337	TRAVEL_PRACTICE_TEST	n/a	n/a	wheel	-1	-1	-1	-28.3757	4.5284	9.57624	12.3302	-17.5865	12.5088	n/a	n/a	n/a	-28.6736	4.638399999999999	69.8277359009	0.749	1	YC1	R1062J
30.304	0.017	345354	TRAVEL_PRACTICE_TEST	n/a	n/a	wheel	-1	-1	-1	-28.3757	4.5284	9.57624	12.3302	-17.5865	12.5088	n/a	n/a	n/a	-28.6894	4.64425	69.996963501	0.766	1	YC1	R1062J
30.321	0.017	345371	TRAVEL_PRACTICE_TEST	n/a	n/a	wheel	-1	-1	-1	-28.3757	4.5284	9.57624	12.3302	-17.5865	12.5088	n/a	n/a	n/a	-28.7061	4.65042	70.1585540771	0.783	1	YC1	R1062J
30.338	0.016	345388	TRAVEL_PRACTICE_TEST	n/a	n/a	wheel	-1	-1	-1	-28.3757	4.5284	9.57624	12.3302	-17.5865	12.5088	n/a	n/a	n/a	-28.7225	4.65768	70.2951126099	0.8	1	YC1	R1062J
30.354	0.017	345404	TRAVEL_PRACTICE_TEST	n/a	n/a	wheel	-1	-1	-1	-28.3757	4.5284	9.57624	12.3302	-17.5865	12.5088	n/a	n/a	n/a	-28.739	4.664839999999999	70.4074325562	0.816	1	YC1	R1062J
30.371	0.017	345421	TRAVEL_PRACTICE_TEST	n/a	n/a	wheel	-1	-1	-1	-28.3757	4.5284	9.57624	12.3302	-17.5865	12.5088	n/a	n/a	n/a	-28.7555	4.67194	70.4978942871	0.833	1	YC1	R1062J
30.388	0.017	345438	TRAVEL_PRACTICE_TEST	n/a	n/a	wheel	-1	-1	-1	-28.3757	4.5284	9.57624	12.3302	-17.5865	12.5088	n/a	n/a	n/a	-28.7722	4.678989999999999	70.5671234131	0.85	1	YC1	R1062J
30.405	0.016	345455	TRAVEL_PRACTICE_TEST	n/a	n/a	wheel	-1	-1	-1	-28.3757	4.5284	9.57624	12.3302	-17.5865	12.5088	n/a	n/a	n/a	-28.7883	4.685789999999999	70.614944458	0.867	1	YC1	R1062J
30.421	0.016	345471	TRAVEL_PRACTICE_TEST	n/a	n/a	wheel	-1	-1	-1	-28.3757	4.5284	9.57624	12.3302	-17.5865	12.5088	n/a	n/a	n/a	-28.8056	4.692899999999999	70.6453704834	0.883	1	YC1	R1062J
30.437	0.017	345487	TRAVEL_PRACTICE_TEST	n/a	n/a	wheel	-1	-1	-1	-28.3757	4.5284	9.57624	12.3302	-17.5865	12.5088	n/a	n/a	n/a	-28.8223	4.69981	70.6563491821	0.899	1	YC1	R1062J
30.454	0.017	345504	TRAVEL_PRACTICE_TEST	n/a	n/a	wheel	-1	-1	-1	-28.3757	4.5284	9.57624	12.3302	-17.5865	12.5088	n/a	n/a	n/a	-28.838	4.706299999999999	70.6563491821	0.916	1	YC1	R1062J
30.471	0.017	345521	TRAVEL_PRACTICE_TEST	n/a	n/a	wheel	-1	-1	-1	-28.3757	4.5284	9.57624	12.3302	-17.5865	12.5088	n/a	n/a	n/a	-28.8545	4.71265	70.6563491821	0.933	1	YC1	R1062J
30.488	0.016	345538	TRAVEL_PRACTICE_TEST	n/a	n/a	wheel	-1	-1	-1	-28.3757	4.5284	9.57624	12.3302	-17.5865	12.5088	n/a	n/a	n/a	-28.8717	4.71868	70.6563491821	0.95	1	YC1	R1062J
